Folder: stickleback_plastic_degradation/XPS (part 6)

File: 250418_191x195-3.2.csv
C1s Scan
	Characteristic Energy eV	1486.68	Acquisition Time s	0.05
KE_C1s Scan	BE_C1s Scan	CPS_C1s Scan	C-C/C-H_1_C1s Scan	C-O_2_C1s Scan	C=O_3_C1s Scan	O-C=O_4_C1s Scan	Background_C1s Scan	Envelope_C1s Scan	Normalised_Residual_C1s Scan	Residual_C1s Scan
1189.24	297.436	1774.05	1774.05	1774.05	1774.05	1774.05	1774.05	1774.05	0	0
1189.44	297.236	2124.08	2124.08	2124.08	2124.08	2124.08	2124.08	2124.08	0	0
1189.64	297.036	1915.37	1915.37	1915.37	1915.37	1915.37	1915.37	1915.37	0	0
1189.84	296.836	1631.91	1631.91	1631.91	1631.91	1631.91	1631.91	1631.91	0	0
1190.04	296.636	1367.03	1367.03	1367.03	1367.03	1367.03	1367.03	1367.03	0	0
1190.24	296.436	1528.15	1528.15	1528.15	1528.15	1528.15	1528.15	1528.15	0	0
1190.44	296.236	1718.69	1718.69	1718.69	1718.69	1718.69	1718.69	1718.69	0	0
1190.64	296.036	1533.9	1533.9	1533.9	1533.9	1533.9	1533.9	1533.9	0	0
1190.84	295.836	1819.43	1819.43	1819.43	1819.43	1819.43	1819.43	1819.43	0	0
1191.04	295.636	1610.82	1610.82	1610.82	1610.82	1610.82	1610.82	1610.82	0	0
1191.24	295.436	1687.43	1687.43	1687.43	1687.43	1687.43	1687.43	1687.43	0	0
1191.44	295.236	1690.09	1690.09	1690.09	1690.09	1690.09	1690.09	1690.09	0	0
1191.64	295.036	1675.59	1675.59	1675.59	1675.59	1675.59	1675.59	1675.59	0	0
1191.84	294.836	1480.31	1480.31	1480.31	1480.31	1480.31	1480.31	1480.31	0	0
1192.04	294.636	1598.69	1598.69	1598.69	1598.69	1598.69	1598.69	1598.69	0	0
1192.24	294.436	1386.8	1386.8	1386.8	1386.8	1386.8	1386.8	1386.8	0	0
1192.44	294.236	1321.17	1321.17	1321.17	1321.17	1321.17	1321.17	1321.17	0	0
1192.64	294.036	1184.51	1184.51	1184.51	1184.51	1184.51	1184.51	1184.51	0	0
1192.84	293.836	1450.11	1450.11	1450.11	1450.11	1450.11	1450.11	1450.11	0	0
1193.04	293.636	1461.86	1461.86	1461.86	1461.86	1461.86	1461.86	1461.86	0	0
1193.24	293.436	1476.39	1476.39	1476.39	1476.39	1476.39	1476.39	1476.39	0	0
1193.44	293.236	1317.93	1317.93	1317.93	1317.93	1317.93	1317.93	1317.93	0	0
1193.64	293.036	1584.71	1584.71	1584.71	1584.71	1584.71	1584.71	1584.71	0	0
1193.84	292.836	1450.98	1450.98	1450.98	1450.98	1450.98	1450.98	1450.98	0	0
1194.04	292.636	1362.4	1362.4	1362.4	1362.4	1362.4	1362.4	1362.4	0	0
1194.24	292.436	1365.73	1365.73	1365.73	1365.73	1365.74	1365.73	1365.74	0	0
1194.44	292.236	1311.62	1256.91	1256.91	1256.91	1256.97	1256.91	1256.97	-0.337405	-2.73237
1194.64	292.036	1169.95	1256.89	1256.89	1256.89	1257.06	1256.89	1257.06	0.569448	4.35535
1194.84	291.836	1283.68	1256.85	1256.85	1256.85	1257.31	1256.85	1257.31	-0.164574	-1.31848
1195.04	291.636	988.304	1256.78	1256.78	1256.78	1257.99	1256.78	1257.99	1.91825	13.4845
1195.24	291.436	1046.65	1256.73	1256.73	1256.73	1259.75	1256.73	1259.75	1.47287	10.6549
1195.44	291.236	1095.76	1256.67	1256.67	1256.68	1263.77	1256.67	1263.77	1.13494	8.40071
1195.64	291.036	1383.17	1256.64	1256.64	1256.65	1272.43	1256.64	1272.44	-0.665791	-5.53683
1195.84	290.836	1288.9	1256.6	1256.6	1256.63	1289.81	1256.6	1289.84	0.00589119	0.047293
1196.04	290.636	1282.15	1256.56	1256.56	1256.65	1322.59	1256.56	1322.68	0.253063	2.02621
1196.24	290.436	1418.32	1256.48	1256.48	1256.7	1380.41	1256.48	1380.64	-0.223769	-1.8844
1196.44	290.236	1326.66	1256.4	1256.4	1256.96	1475.62	1256.4	1476.18	0.917924	7.47604
1196.64	290.036	1438.55	1256.34	1256.35	1257.64	1620.83	1256.34	1622.13	1.08231	9.17911
1196.84	289.836	1749.16	1256.12	1256.14	1258.97	1823.53	1256.12	1826.4	0.412956	3.86193
1197.04	289.636	2000.48	1255.85	1255.91	1261.76	2078.57	1255.85	2084.55	0.42029	4.20341
1197.24	289.436	2253.98	1255.4	1255.6	1266.99	2359.29	1255.4	2371.08	0.551538	5.85511
1197.44	289.236	2875.52	1254.72	1255.29	1276.16	2615.54	1254.72	2637.54	-0.992352	-11.899
1197.64	289.036	2841.46	1253.94	1255.44	1291.29	2785.02	1253.94	2823.87	-0.0737713	-0.879312
1197.84	288.836	2849.18	1253.11	1256.9	1314.24	2818.4	1253.11	2883.31	0.142981	1.70657
1198.04	288.636	2940.86	1252.31	1261.33	1345.85	2705.08	1252.3	2807.65	-0.549288	-6.66074
1198.24	288.436	2959.34	1251.65	1271.99	1384.76	2479.3	1251.64	2632.78	-1.34228	-16.3278
1198.44	288.236	2037.16	1251.22	1294.6	1426.19	2201.28	1251.19	2419.72	1.89529	19.1281
1198.64	288.036	2425.52	1250.79	1338.19	1461.63	1928.84	1250.66	2227.48	-0.899166	-9.9021
1198.84	287.836	2124.42	1250.8	1416.98	1482.11	1699.89	1250.29	2098.9	-0.123784	-1.27577
1199.04	287.636	1938.76	1251.79	1549.27	1481.26	1528.39	1249.95	2060.86	0.620081	6.10514
1199.24	287.436	2156.42	1255.67	1755.16	1459.18	1411.38	1249.56	2132.72	-0.114116	-1.18495
1199.44	287.236	2827.1	1267.63	2049.42	1422.05	1337.4	1248.87	2329.9	-2.09096	-24.86
1199.64	287.036	2494.66	1301.54	2430.54	1379.46	1293.9	1248.2	2660.84	0.743967	8.30892
1199.84	286.836	3335.5	1387.66	2866.07	1339.29	1269.64	1247.36	3120.58	-0.832116	-10.7461
1200.04	286.636	3284.5	1587.26	3286.09	1306.22	1256.6	1246.33	3697.18	1.61014	20.634
1200.24	286.436	4236.54	2009.68	3594.45	1281.51	1249.49	1245.01	4400.1	0.561907	8.17815
1200.44	286.236	5004.48	2823.47	3704.25	1264.29	1245.24	1243.39	5307.06	0.956419	15.1291
1200.64	286.036	6803.6	4238.76	3580.38	1252.14	1241.59	1240.87	6590.26	-0.578358	-10.6672
1200.84	285.836	8449.04	6432.01	3260.48	1243.42	1237.95	1237.68	8460.81	0.0286218	0.588282
1201.04	285.636	11426.8	9386.38	2832.17	1235.95	1233.28	1233.19	10988.2	-0.917501	-21.9308
1201.24	285.436	14586.2	12698	2390.83	1228.45	1227.23	1227.2	13862.9	-1.33916	-36.1651
1201.44	285.236	15273.8	15514.4	2005.62	1221.01	1220.48	1220.47	16300.1	1.85695	51.3166
1201.64	285.036	17468.4	16827.7	1707.29	1213.2	1212.98	1212.98	17322.2	-0.24733	-7.30951
1201.84	284.836	15993.9	16085.6	1497.38	1205.71	1205.62	1205.62	16377.5	0.678249	19.1801
1202.04	284.636	13289.1	13600.2	1361.56	1199.57	1199.54	1199.54	13762.3	0.917775	23.6575
1202.24	284.436	10274.2	10315.7	1279.36	1194.52	1194.51	1194.51	10400.6	0.278775	6.31848
1202.44	284.236	7861.6	7184.18	1233	1191.03	1191.03	1191.03	7226.15	-1.60254	-31.7724
1202.64	284.036	4570.26	4746.59	1208.76	1189.13	1189.13	1189.13	4766.21	0.648142	9.79773
1202.84	283.836	3079.52	3112.63	1196.66	1187.98	1187.98	1187.98	3121.32	0.168413	2.08979
1203.04	283.636	2607.08	2142.14	1190.84	1187.2	1187.2	1187.2	2145.77	-2.02024	-23.0656
1203.24	283.436	1918.44	1623.04	1188.27	1186.83	1186.83	1186.83	1624.48	-1.50073	-14.6982
1203.44	283.236	1867.13	1370.46	1187.13	1186.59	1186.59	1186.59	1371	-2.56741	-24.8066
1203.64	283.036	1254.37	1258.1	1186.7	1186.51	1186.51	1186.51	1258.29	0.0247482	0.195994
1203.84	282.836	1346.55	1212.18	1186.47	1186.41	1186.41	1186.41	1212.24	-0.81846	-6.71575
1204.04	282.636	1450.16	1194.91	1186.36	1186.34	1186.34	1186.34	1194.93	-1.49868	-12.7615
1204.24	282.436	1395.4	1188.92	1186.29	1186.29	1186.29	1186.29	1188.93	-1.23593	-10.3235
1204.44	282.236	1341.62	1186.99	1186.24	1186.24	1186.24	1186.24	1186.99	-0.944007	-7.7317
1204.64	282.036	1194.92	1186.41	1186.21	1186.21	1186.21	1186.21	1186.41	-0.0550791	-0.425738
1204.84	281.836	1233.34	1186.24	1186.19	1186.19	1186.19	1186.19	1186.24	-0.299866	-2.35479
1205.04	281.636	1205.88	1186.16	1186.15	1186.15	1186.15	1186.15	1186.16	-0.127014	-0.986252
1205.24	281.436	1226.03	1186.12	1186.11	1186.11	1186.11	1186.11	1186.12	-0.254914	-1.99586
1205.44	281.236	1259.6	1186.06	1186.06	1186.06	1186.06	1186.06	1186.06	-0.46328	-3.67658
1205.64	281.036	918.69	918.69	918.69	918.69	918.69	918.69	918.69	0	0
1205.84	280.836	1010.03	1010.03	1010.03	1010.03	1010.03	1010.03	1010.03	0	0
1206.04	280.636	1185.16	1185.16	1185.16	1185.16	1185.16	1185.16	1185.16	0	0
1206.24	280.436	982.6	982.6	982.6	982.6	982.6	982.6	982.6	0	0
1206.44	280.236	1002.83	1002.83	1002.83	1002.83	1002.83	1002.83	1002.83	0	0
1206.64	280.036	1091.02	1091.02	1091.02	1091.02	1091.02	1091.02	1091.02	0	0
1206.84	279.836	1018.21	1018.21	1018.21	1018.21	1018.21	1018.21	1018.21	0	0
1207.04	279.636	726.666	726.666	726.666	726.666	726.666	726.666	726.666	0	0
1207.24	279.436	924.4	924.4	924.4	924.4	924.4	924.4	924.4	0	0
1207.44	279.236	996.084	996.084	996.084	996.084	996.084	996.084	996.084	0	0
1207.64	279.036	994.374	994.374	994.374	994.374	994.374	994.374	994.374	0	0
1207.84	278.836	1040.38	1040.38	1040.38	1040.38	1040.38	1040.38	1040.38	0	0
1208.04	278.636	853.714	853.714	853.714	853.714	853.714	853.714	853.714	0	0
1208.24	278.436	964.09	964.09	964.09	964.09	964.09	964.09	964.09	0	0

File: 250418_195-1.1.csv
C1s Scan
	Characteristic Energy eV	1486.68	Acquisition Time s	0.05
KE_C1s Scan	BE_C1s Scan	CPS_C1s Scan	C-C/C-H_1_C1s Scan	C-O_2_C1s Scan	C=O_3_C1s Scan	O-C=O_4_C1s Scan	Background_C1s Scan	Envelope_C1s Scan	Normalised_Residual_C1s Scan	Residual_C1s Scan
1189.46	297.216	1890.03	1890.03	1890.03	1890.03	1890.03	1890.03	1890.03	0	0
1189.66	297.016	1660.04	1660.04	1660.04	1660.04	1660.04	1660.04	1660.04	0	0
1189.86	296.816	1890.05	1890.05	1890.05	1890.05	1890.05	1890.05	1890.05	0	0
1190.06	296.616	1752.51	1752.51	1752.51	1752.51	1752.51	1752.51	1752.51	0	0
1190.26	296.416	1614.47	1614.47	1614.47	1614.47	1614.47	1614.47	1614.47	0	0
1190.46	296.216	2041.24	2041.24	2041.24	2041.24	2041.24	2041.24	2041.24	0	0
1190.66	296.016	1438.32	1438.32	1438.32	1438.32	1438.32	1438.32	1438.32	0	0
1190.86	295.816	1863	1863	1863	1863	1863	1863	1863	0	0
1191.06	295.616	1933.09	1933.09	1933.09	1933.09	1933.09	1933.09	1933.09	0	0
1191.26	295.416	2173	2173	2173	2173	2173	2173	2173	0	0
1191.46	295.216	1927.4	1927.4	1927.4	1927.4	1927.4	1927.4	1927.4	0	0
1191.66	295.016	1667.74	1667.74	1667.74	1667.74	1667.74	1667.74	1667.74	0	0
1191.86	294.816	1836.04	1836.04	1836.04	1836.04	1836.04	1836.04	1836.04	0	0
1192.06	294.616	1741.35	1741.35	1741.35	1741.35	1741.35	1741.35	1741.35	0	0
1192.26	294.416	1922.07	1922.07	1922.07	1922.07	1922.07	1922.07	1922.07	0	0
1192.46	294.216	1526.35	1526.35	1526.35	1526.35	1526.35	1526.35	1526.35	0	0
1192.66	294.016	1611.91	1611.91	1611.91	1611.91	1611.91	1611.91	1611.91	0	0
1192.86	293.816	2215.12	2215.12	2215.12	2215.12	2215.12	2215.12	2215.12	0	0
1193.06	293.616	1512.2	1512.2	1512.2	1512.2	1512.2	1512.2	1512.2	0	0
1193.26	293.416	1740.74	1740.74	1740.74	1740.74	1740.74	1740.74	1740.74	0	0
1193.46	293.216	1651.77	1651.77	1651.77	1651.77	1651.77	1651.77	1651.77	0	0
1193.66	293.016	1768.73	1768.73	1768.73	1768.73	1768.73	1768.73	1768.73	0	0
1193.86	292.816	1592.17	1592.17	1592.17	1592.17	1592.17	1592.17	1592.17	0	0
1194.06	292.616	1982.96	1982.96	1982.96	1982.96	1982.97	1982.96	1982.97	0	0
1194.26	292.416	1408.11	1408.11	1408.11	1408.11	1408.13	1408.11	1408.13	0	0
1194.46	292.216	1370.72	1370.72	1370.72	1370.72	1370.78	1370.72	1370.78	0	0
1194.66	292.016	1654.08	1654.08	1654.08	1654.08	1654.26	1654.08	1654.26	0	0
1194.86	291.816	1182.13	1182.13	1182.13	1182.13	1182.61	1182.13	1182.61	0	0
1195.06	291.616	1502.5	1502.5	1502.5	1502.5	1503.74	1502.5	1503.74	0	0
1195.26	291.416	1539.6	1539.6	1539.6	1539.61	1542.66	1539.6	1542.66	0	0
1195.46	291.216	1563.73	1563.73	1563.73	1563.73	1570.86	1563.73	1570.86	0	0
1195.66	291.016	1671.8	1562.96	1562.96	1562.98	1578.7	1562.96	1578.71	-0.509088	-4.65447
1195.86	290.816	1497.21	1562.77	1562.77	1562.81	1595.62	1562.77	1595.66	0.568902	4.92226
1196.06	290.616	1803.3	1562.57	1562.57	1562.68	1627.37	1562.57	1627.48	-0.925787	-8.79082
1196.26	290.416	1340.92	1562.37	1562.37	1562.65	1683.02	1562.37	1683.3	2.09071	17.1191
1196.46	290.216	1478.28	1562.2	1562.21	1562.89	1773.89	1562.2	1774.57	1.72313	14.8143
1196.66	290.016	1506.61	1562.13	1562.13	1563.7	1911.06	1562.13	1912.64	2.33906	20.3015
1196.86	289.816	1972.22	1561.72	1561.74	1565.17	2099.92	1561.72	2103.39	0.660439	6.55837
1197.06	289.616	2018.48	1561	1561.06	1568.12	2333.61	1561	2340.79	1.60415	16.1155
1197.26	289.416	2330.38	1559.88	1560.06	1573.79	2585.24	1559.88	2599.33	1.24579	13.4475
1197.46	289.216	2858.48	1558.52	1559.03	1584.15	2807.55	1558.52	2833.68	-0.103702	-1.23976
1197.66	289.016	3268.14	1556.64	1557.98	1601.11	2944.17	1556.64	2989.99	-1.08796	-13.9074
1197.86	288.816	3157.46	1554.73	1558.1	1627.21	2954.74	1554.73	3030.59	-0.504861	-6.34345
1198.06	288.616	3026.32	1553.19	1561.2	1663.62	2835.71	1553.19	2954.15	-0.29335	-3.60852
1198.26	288.416	2530.3	1551.9	1569.91	1708.31	2622.21	1551.9	2796.63	1.18392	13.3166
1198.46	288.216	2399.62	1550.92	1589.18	1755.44	2369.65	1550.9	2612.5	0.971757	10.6442
1198.66	288.016	2139.18	1550.16	1626.97	1795.24	2128.33	1550.05	2450.54	1.5053	15.5679
1198.86	287.816	2254.2	1549.48	1694.98	1816.82	1928.74	1549.05	2342.85	0.417523	4.43263
1199.06	287.616	2235.58	1549.68	1809.19	1813.65	1781.23	1548.16	2309.27	0.34848	3.68432
1199.26	287.416	2446.74	1552.36	1986.45	1786.44	1681.67	1547.34	2364.91	-0.369935	-4.0917
1199.46	287.216	2660.22	1561.53	2238.36	1742.52	1619.07	1546.16	2523.02	-0.594821	-6.86009
1199.66	287.016	2966.64	1588.12	2562	1692.61	1581.95	1544.6	2790.89	-0.721509	-8.78738
1199.86	286.816	3083.98	1656.69	2928.37	1645.96	1560.89	1542.81	3163.48	0.320114	3.97507
1200.06	286.616	3580.04	1815.92	3276.4	1607.36	1548.74	1540.46	3627.03	0.175591	2.34926
1200.26	286.416	3796.86	2153.32	3525.08	1578.45	1541.44	1537.86	4184.72	1.40751	19.3932
1200.46	286.216	4911.42	2802.41	3602.92	1557.74	1536.07	1534.6	4895.34	-0.0513092	-0.804051
1200.66	286.016	5490.02	3927.78	3484.71	1543.06	1531.2	1530.63	5894.86	1.22174	20.2419
1200.86	285.816	7772.6	5661.66	3203.91	1530.62	1524.53	1524.32	7347.76	-1.07752	-21.242
1201.06	285.616	10456.5	7980.58	2835.77	1518.28	1515.33	1515.26	9304.19	-2.51972	-57.6143
1201.26	285.416	11510.6	10554.5	2460.75	1505.8	1504.45	1504.43	11512.2	0.00340064	0.0815822
1201.46	285.216	12824.3	12705.6	2134.41	1492.55	1491.97	1491.96	13348.6	1.03533	26.2167
1201.66	285.016	13209.2	13654.7	1881.45	1478.89	1478.65	1478.65	14057.7	1.65087	42.4263
1201.86	284.816	12769.8	12998.9	1702.11	1465.38	1465.29	1465.29	13235.8	0.922129	23.3007
1202.06	284.616	11857.6	11012.8	1584.71	1453.74	1453.71	1453.71	11143.8	-1.46567	-35.6878
1202.26	284.416	8573.36	8440.37	1513.13	1444.79	1444.78	1444.78	8508.73	-0.156069	-3.2313
1202.46	284.216	6141.1	6013.12	1472.64	1438.97	1438.96	1438.96	6046.81	-0.269049	-4.71454
1202.66	284.016	4226.96	4138.26	1451.32	1435.64	1435.63	1435.63	4153.95	-0.251105	-3.65052
1202.86	283.816	3597.36	2889.45	1439.98	1433.07	1433.07	1433.07	2896.37	-2.6134	-35.0496
1203.06	283.616	2908.16	2151.33	1434.22	1431.34	1431.34	1431.34	2154.21	-3.1262	-37.6974
1203.26	283.416	2209.94	1758.32	1431.66	1430.52	1430.52	1430.52	1759.46	-2.14276	-22.5242
1203.46	283.216	2009.64	1567.59	1430.27	1429.84	1429.84	1429.84	1568.01	-2.20284	-22.0815
1203.66	283.016	1812.47	1483.08	1429.75	1429.6	1429.6	1429.6	1483.23	-1.72927	-16.462
1203.86	282.816	1812.93	1448.33	1429.19	1429.14	1429.14	1429.14	1448.38	-1.91445	-18.2272
1204.06	282.616	1635.55	1435.21	1428.86	1428.84	1428.84	1428.84	1435.23	-1.10758	-10.016
1204.26	282.416	1614.6	1430.67	1428.72	1428.72	1428.72	1428.72	1430.67	-1.02351	-9.19626
1204.46	282.216	1473.25	1429.2	1428.65	1428.65	1428.65	1428.65	1429.2	-0.256627	-2.20256
1204.66	282.016	1462.54	1428.74	1428.59	1428.59	1428.59	1428.59	1428.74	-0.197645	-1.69015
1204.86	281.816	1712.84	1428.39	1428.36	1428.36	1428.36	1428.36	1428.39	-1.53685	-14.2225
1205.06	281.616	1717.38	1428.12	1428.11	1428.11	1428.11	1428.11	1428.12	-1.56076	-14.4629
1205.26	281.416	1318.73	1427.94	1427.94	1427.94	1427.94	1427.94	1427.94	0.672505	5.46082
1205.46	281.216	1535.18	1427.81	1427.81	1427.81	1427.81	1427.81	1427.81	-0.612748	-5.36841
1205.66	281.016	1474.83	1427.71	1427.71	1427.71	1427.71	1427.71	1427.71	-0.274365	-2.35605
1205.86	280.816	1520.51	1520.51	1520.51	1520.51	1520.51	1520.51	1520.51	0	0
1206.06	280.616	1274.07	1274.07	1274.07	1274.07	1274.07	1274.07	1274.07	0	0
1206.26	280.416	1089.36	1089.36	1089.36	1089.36	1089.36	1089.36	1089.36	0	0
1206.46	280.216	1445.39	1445.39	1445.39	1445.39	1445.39	1445.39	1445.39	0	0
1206.66	280.016	1438.83	1438.83	1438.83	1438.83	1438.83	1438.83	1438.83	0	0
1206.86	279.816	1247.34	1247.34	1247.34	1247.34	1247.34	1247.34	1247.34	0	0
1207.06	279.616	1238.26	1238.26	1238.26	1238.26	1238.26	1238.26	1238.26	0	0
1207.26	279.416	1247.56	1247.56	1247.56	1247.56	1247.56	1247.56	1247.56	0	0
1207.46	279.216	1317.02	1317.02	1317.02	1317.02	1317.02	1317.02	1317.02	0	0
1207.66	279.016	1390.53	1390.53	1390.53	1390.53	1390.53	1390.53	1390.53	0	0
1207.86	278.816	1562.21	1562.21	1562.21	1562.21	1562.21	1562.21	1562.21	0	0
1208.06	278.616	1291.18	1291.18	1291.18	1291.18	1291.18	1291.18	1291.18	0	0
1208.26	278.416	1286.8	1286.8	1286.8	1286.8	1286.8	1286.8	1286.8	0	0
1208.46	278.216	1399.7	1399.7	1399.7	1399.7	1399.7	1399.7	1399.7	0	0

File: 250418_195-1.2.csv
C1s Scan
	Characteristic Energy eV	1486.68	Acquisition Time s	0.05
KE_C1s Scan	BE_C1s Scan	CPS_C1s Scan	C-C/C-H_1_C1s Scan	C-O_2_C1s Scan	C=O_3_C1s Scan	O-C=O_4_C1s Scan	Background_C1s Scan	Envelope_C1s Scan	Normalised_Residual_C1s Scan	Residual_C1s Scan
1189.38	297.3	1655.14	1655.14	1655.14	1655.14	1655.14	1655.14	1655.14	0	0
1189.58	297.1	1491.61	1491.61	1491.61	1491.61	1491.61	1491.61	1491.61	0	0
1189.78	296.9	1485.1	1485.1	1485.1	1485.1	1485.1	1485.1	1485.1	0	0
1189.98	296.7	1529.36	1529.36	1529.36	1529.36	1529.36	1529.36	1529.36	0	0
1190.18	296.5	1409.47	1409.47	1409.47	1409.47	1409.47	1409.47	1409.47	0	0
1190.38	296.3	1453.85	1453.85	1453.85	1453.85	1453.85	1453.85	1453.85	0	0
1190.58	296.1	1203.97	1203.97	1203.97	1203.97	1203.97	1203.97	1203.97	0	0
1190.78	295.9	1390.23	1390.23	1390.23	1390.23	1390.23	1390.23	1390.23	0	0
1190.98	295.7	1507.68	1507.68	1507.68	1507.68	1507.68	1507.68	1507.68	0	0
1191.18	295.5	1263.24	1263.24	1263.24	1263.24	1263.24	1263.24	1263.24	0	0
1191.38	295.3	1283.89	1283.89	1283.89	1283.89	1283.89	1283.89	1283.89	0	0
1191.58	295.1	1530.07	1530.07	1530.07	1530.07	1530.07	1530.07	1530.07	0	0
1191.78	294.9	1535.19	1535.19	1535.19	1535.19	1535.19	1535.19	1535.19	0	0
1191.98	294.7	1218.76	1218.76	1218.76	1218.76	1218.76	1218.76	1218.76	0	0
1192.18	294.5	1230.32	1230.32	1230.32	1230.32	1230.32	1230.32	1230.32	0	0
1192.38	294.3	1525.49	1525.49	1525.49	1525.49	1525.49	1525.49	1525.49	0	0
1192.58	294.1	1124.7	1124.7	1124.7	1124.7	1124.7	1124.7	1124.7	0	0
1192.78	293.9	1302.61	1302.61	1302.61	1302.61	1302.61	1302.61	1302.61	0	0
1192.98	293.7	1029.16	1029.16	1029.16	1029.16	1029.16	1029.16	1029.16	0	0
1193.18	293.5	1401.85	1401.85	1401.85	1401.85	1401.85	1401.85	1401.85	0	0
1193.38	293.3	1256.14	1256.14	1256.14	1256.14	1256.14	1256.14	1256.14	0	0
1193.58	293.1	1364.59	1364.59	1364.59	1364.59	1364.59	1364.59	1364.59	0	0
1193.78	292.9	1100.52	1100.52	1100.52	1100.52	1100.52	1100.52	1100.52	0	0
1193.98	292.7	1131.13	1131.13	1131.13	1131.13	1131.13	1131.13	1131.13	0	0
1194.18	292.5	1186.5	1186.5	1186.5	1186.5	1186.51	1186.5	1186.51	0	0
1194.38	292.3	1191.4	1191.4	1191.4	1191.4	1191.43	1191.4	1191.43	0	0
1194.58	292.1	1550.25	1550.25	1550.25	1550.25	1550.34	1550.25	1550.34	0	0
1194.78	291.9	1083.99	1083.99	1083.99	1083.99	1084.21	1083.99	1084.21	0	0
1194.98	291.7	1618.25	1618.25	1618.25	1618.25	1618.81	1618.25	1618.81	0	0
1195.18	291.5	1191.46	1191.46	1191.46	1191.46	1192.81	1191.46	1192.81	0	0
1195.38	291.3	1143.73	1143.73	1143.73	1143.74	1146.81	1143.73	1146.81	0	0
1195.58	291.1	1129.92	1235.58	1235.58	1235.59	1242.24	1235.58	1242.24	0.747215	5.61635
1195.78	290.9	1088.45	1235.04	1235.04	1235.06	1248.71	1235.04	1248.73	1.08629	8.01377
1195.98	290.7	1113.1	1234.57	1234.57	1234.61	1261.18	1234.57	1261.23	0.99277	7.40629
1196.18	290.5	1388.97	1234.02	1234.02	1234.13	1283.15	1234.02	1283.26	-0.634262	-5.28568
1196.38	290.3	1154.41	1233.61	1233.62	1233.88	1319.58	1233.61	1319.85	1.08882	8.27221
1196.58	290.1	1317.66	1233.24	1233.25	1233.87	1375.19	1233.24	1375.82	0.358258	2.90792
1196.78	289.9	1409.11	1232.89	1232.92	1234.27	1453.41	1232.89	1454.81	0.272229	2.28503
1196.98	289.7	1460.74	1232.39	1232.49	1235.27	1553.36	1232.39	1556.33	0.55922	4.77919
1197.18	289.5	1947.53	1230.47	1230.74	1236.18	1665.84	1230.47	1671.82	-1.39701	-13.7857
1197.38	289.3	1690.31	1229.09	1229.83	1239.82	1775.78	1229.09	1787.26	0.527253	4.84716
1197.58	289.1	2082.72	1226.09	1228.04	1245.21	1857.56	1226.09	1878.62	-1.00001	-10.2048
1197.78	288.9	1832.31	1223.62	1228.47	1255.8	1891.47	1223.62	1928.5	0.502441	4.80917
1197.98	288.7	1588.02	1221.5	1232.95	1272.57	1866.91	1221.5	1929.45	1.91582	17.0713
1198.18	288.5	1898.5	1219.08	1244.75	1295.14	1789.71	1219.08	1891.44	-0.036248	-0.353162
1198.38	288.3	2106.38	1216.8	1271.34	1322.53	1680.15	1216.8	1840.43	-1.29574	-13.2976
1198.58	288.1	1748.99	1215	1325.24	1351.34	1562.8	1214.97	1809.47	0.323391	3.02418
1198.78	287.9	1777.97	1213.87	1425.24	1375.94	1456.69	1213.75	1830.49	0.278482	2.62569
1198.98	287.7	1835.01	1211.42	1595	1387.72	1369.72	1210.96	1930.97	0.500889	4.79784
1199.18	287.5	2287.04	1208.85	1866.52	1383.28	1304.71	1207.21	2141.73	-0.679409	-7.2653
1199.38	287.3	2731.78	1208.32	2270.59	1363.21	1259.41	1202.86	2492.93	-1.02183	-11.9423
1199.58	287.1	2732.94	1214.82	2824.33	1332.05	1229.15	1198.11	3006.01	1.168	13.6534
1199.78	286.9	4163.56	1235.56	3505.27	1291.42	1204.39	1188.25	3671.89	-1.70384	-24.5836
1199.98	286.7	4572.02	1301.91	4247.1	1251.81	1185.98	1178.03	4452.71	-0.394539	-5.96526
1200.18	286.5	4738.36	1464	4920.03	1213.45	1167.87	1164.15	5272.89	1.73637	26.7264
1200.38	286.3	5750.84	1820.1	5371.13	1180.04	1150.77	1149.12	6074.67	0.954855	16.1915
1200.58	286.1	6602.18	2514.66	5472.17	1149.91	1132.33	1131.63	6874.17	0.748493	13.5993
1200.78	285.9	8206.2	3726.26	5185.03	1119.65	1109.73	1109.45	7812.32	-0.972251	-19.694
1200.98	285.7	9988.28	5601.83	4587.12	1087.22	1081.92	1081.82	9112.64	-1.95914	-43.782
1201.18	285.5	11352.2	8118.52	3823.95	1051.55	1048.87	1048.83	10896.4	-0.956682	-22.7926
1201.38	285.3	13013.4	10915.7	3044.09	1010.66	1009.38	1009.36	12951.7	-0.120863	-3.083
1201.58	285.1	14691.8	13251.5	2353.02	963.358	962.777	962.773	14642.4	-0.0911734	-2.4711
1201.78	284.9	14108.8	14275.8	1806.75	916.054	915.804	915.803	15167	1.99205	52.9091
1201.98	284.7	13518.8	13541.3	1407.94	870.499	870.398	870.397	14078.9	1.0772	28.006
1202.18	284.5	11548	11346.3	1138.78	832.588	832.548	832.548	11652.6	0.217716	5.23152
1202.38	284.3	8951.2	8504.42	967.303	802.284	802.269	802.269	8669.47	-0.665843	-14.0863
1202.58	284.1	7366.44	5820.12	863.744	779.512	779.507	779.507	5904.37	-3.80913	-73.1037
1202.78	283.9	4537.78	3746.43	805.769	764.865	764.863	764.863	3787.34	-2.49103	-37.522
1202.98	283.7	3019.18	2364.18	774.988	756.136	756.135	756.135	2383.03	-2.5888	-31.8074
1203.18	283.5	2667.88	1544.65	757.313	749.07	749.07	749.07	1552.89	-4.82695	-55.7495
1203.38	283.3	1597.38	1108.02	748.973	745.554	745.554	745.554	1111.44	-2.71871	-24.297
1203.58	283.1	1370.43	895.513	744.447	743.103	743.103	743.103	896.857	-2.86053	-23.6789
1203.78	282.9	1063.56	800.601	741.892	741.388	741.388	741.388	801.105	-1.79953	-13.1228
1203.98	282.7	977.228	761.858	740.773	740.593	740.593	740.593	762.038	-1.53925	-10.7595
1204.18	282.5	743.042	747.359	740.36	740.3	740.3	740.3	747.419	0.0359079	0.218867
1204.38	282.3	673.014	742.198	740.052	740.033	740.033	740.033	742.218	0.596488	3.46018
1204.58	282.1	755.66	740.567	739.959	739.953	739.953	739.953	740.573	-0.122723	-0.754352
1204.78	281.9	829.142	739.773	739.614	739.613	739.613	739.613	739.775	-0.693982	-4.46835
1204.98	281.7	650.662	739.318	739.28	739.28	739.28	739.28	739.319	0.777177	4.43285
1205.18	281.5	920.08	738.897	738.889	738.889	738.889	738.889	738.897	-1.33564	-9.05913
1205.38	281.3	770.194	738.648	738.646	738.646	738.646	738.646	738.648	-0.254175	-1.57731
1205.58	281.1	853.828	738.199	738.198	738.198	738.198	738.198	738.199	-0.884846	-5.78147
1205.78	280.9	763.584	737.917	737.917	737.917	737.917	737.917	737.918	-0.207694	-1.28332
1205.98	280.7	605.694	737.688	737.688	737.688	737.688	737.688	737.688	1.19926	6.59972
1206.18	280.5	703.95	737.619	737.619	737.619	737.619	737.619	737.619	0.283756	1.68345
1206.38	280.3	809.406	809.406	809.406	809.406	809.406	809.406	809.406	0	0
1206.58	280.1	499.988	499.988	499.988	499.988	499.988	499.988	499.988	0	0
1206.78	279.9	727.932	727.932	727.932	727.932	727.932	727.932	727.932	0	0
1206.98	279.7	476.342	476.342	476.342	476.342	476.342	476.342	476.342	0	0
1207.18	279.5	435.464	435.464	435.464	435.464	435.464	435.464	435.464	0	0
1207.38	279.3	516.3	516.3	516.3	516.3	516.3	516.3	516.3	0	0
1207.58	279.1	679.296	679.296	679.296	679.296	679.296	679.296	679.296	0	0
1207.78	278.9	731.67	731.67	731.67	731.67	731.67	731.67	731.67	0	0
1207.98	278.7	448.03	448.03	448.03	448.03	448.03	448.03	448.03	0	0
1208.18	278.5	460.146	460.146	460.146	460.146	460.146	460.146	460.146	0	0
1208.38	278.3	528.578	528.578	528.578	528.578	528.578	528.578	528.578	0	0