Folder: stickleback_plastic_degradation/XPS (part 9)

File: 250418_C-1.2.csv
C1s Scan
	Characteristic Energy eV	1486.68	Acquisition Time s	0.05
KE_C1s Scan	BE_C1s Scan	CPS_C1s Scan	C-C/C-H_1_C1s Scan	C-O_2_C1s Scan	C=O_3_C1s Scan	O-C=O_4_C1s Scan	Background_C1s Scan	Envelope_C1s Scan	Normalised_Residual_C1s Scan	Residual_C1s Scan
1188.9	297.781	3010.88	3010.88	3010.88	3010.88	3010.88	3010.88	3010.88	0	0
1189.1	297.581	2992.04	2992.04	2992.04	2992.04	2992.04	2992.04	2992.04	0	0
1189.3	297.381	2930.44	2930.44	2930.44	2930.44	2930.44	2930.44	2930.44	0	0
1189.5	297.181	2668.08	2668.08	2668.08	2668.08	2668.08	2668.08	2668.08	0	0
1189.7	296.981	2242.04	2242.04	2242.04	2242.04	2242.04	2242.04	2242.04	0	0
1189.9	296.781	2631.56	2631.56	2631.56	2631.56	2631.56	2631.56	2631.56	0	0
1190.1	296.581	2533.12	2533.12	2533.12	2533.12	2533.12	2533.12	2533.12	0	0
1190.3	296.381	2534.5	2534.5	2534.5	2534.5	2534.5	2534.5	2534.5	0	0
1190.5	296.181	2091.6	2091.6	2091.6	2091.6	2091.6	2091.6	2091.6	0	0
1190.7	295.981	2531.04	2531.04	2531.04	2531.04	2531.04	2531.04	2531.04	0	0
1190.9	295.781	2164.94	2164.94	2164.94	2164.94	2164.94	2164.94	2164.94	0	0
1191.1	295.581	2116.56	2116.56	2116.56	2116.56	2116.56	2116.56	2116.56	0	0
1191.3	295.381	1935.04	1935.04	1935.04	1935.04	1935.04	1935.04	1935.04	0	0
1191.5	295.181	2265.2	2265.2	2265.2	2265.2	2265.2	2265.2	2265.2	0	0
1191.7	294.981	1860.18	1860.18	1860.18	1860.18	1860.18	1860.18	1860.18	0	0
1191.9	294.781	1433.83	1433.83	1433.83	1433.83	1433.83	1433.83	1433.83	0	0
1192.1	294.581	2029.5	2029.5	2029.5	2029.5	2029.5	2029.5	2029.5	0	0
1192.3	294.381	1601.29	1601.29	1601.29	1601.29	1601.29	1601.29	1601.29	0	0
1192.5	294.181	1352.4	1352.4	1352.4	1352.4	1352.4	1352.4	1352.4	0	0
1192.7	293.981	1370.05	1370.05	1370.05	1370.05	1370.05	1370.05	1370.05	0	0
1192.9	293.781	1558.33	1558.33	1558.33	1558.33	1558.33	1558.33	1558.33	0	0
1193.1	293.581	1183.14	1183.14	1183.14	1183.14	1183.14	1183.14	1183.14	0	0
1193.3	293.381	1406.41	1406.41	1406.41	1406.41	1406.41	1406.41	1406.41	0	0
1193.5	293.181	1200.46	1200.46	1200.46	1200.46	1200.46	1200.46	1200.46	0	0
1193.7	292.981	1058.69	1058.69	1058.69	1058.69	1058.69	1058.69	1058.69	0	0
1193.9	292.781	877.69	877.69	877.69	877.69	877.69	877.69	877.69	0	0
1194.1	292.581	870.116	870.116	870.116	870.116	870.117	870.116	870.117	0	0
1194.3	292.381	1113.23	1113.23	1113.23	1113.23	1113.23	1113.23	1113.23	0	0
1194.5	292.181	875.868	875.868	875.868	875.868	875.878	875.868	875.878	0	0
1194.7	291.981	555.852	555.852	555.852	555.852	555.888	555.852	555.888	0	0
1194.9	291.781	749.77	749.77	749.77	749.77	749.89	749.77	749.89	0	0
1195.1	291.581	661.478	661.478	661.478	661.478	661.852	661.478	661.853	0	0
1195.3	291.381	586.712	586.712	586.712	586.713	587.809	586.712	587.811	0	0
1195.5	291.181	911.01	911.01	911.01	911.016	914.004	911.01	914.009	0	0
1195.7	290.981	569.648	791.426	791.426	791.448	799.085	791.426	799.107	2.14974	11.473
1195.9	290.781	798.27	791.374	791.374	791.451	809.636	791.374	809.712	0.0905557	0.572105
1196.1	290.581	814.424	791.348	791.348	791.601	832.11	791.348	832.362	0.140551	0.8969
1196.3	290.381	964.032	791.305	791.305	792.08	876.066	791.305	876.842	-0.627921	-4.35949
1196.5	290.181	873.326	791.265	791.266	793.496	955.662	791.265	957.893	0.63988	4.22836
1196.7	289.981	835.436	791.219	791.222	797.213	1087.09	791.219	1093.09	1.99326	12.8826
1196.9	289.781	1277.43	791.058	791.067	806.112	1283.66	791.058	1298.72	0.133251	1.06493
1197.1	289.581	1674.92	790.755	790.792	826.081	1543.85	790.755	1579.21	-0.522921	-4.7854
1197.3	289.381	1907.68	790.342	790.478	867.793	1839.07	790.342	1916.65	0.0459525	0.448793
1197.5	289.181	2261.46	789.816	790.276	948.149	2107.32	789.816	2266.12	0.0218913	0.232782
1197.7	288.981	2548.04	789.223	790.696	1090.69	2269.07	789.223	2572.01	0.106184	1.19852
1197.9	288.781	2811.96	788.486	792.85	1320.87	2267.1	788.486	2803.85	-0.0341942	-0.405455
1198.1	288.581	3048.82	787.651	799.831	1655.92	2101.55	787.651	2982	-0.270596	-3.34097
1198.3	288.381	2861.5	786.829	818.372	2084.73	1831.03	786.829	3160.47	1.24972	14.9484
1198.5	288.181	3810.28	785.769	862.575	2548.81	1534.5	785.768	3374.35	-1.57915	-21.7965
1198.7	287.981	3578.66	784.736	958.593	2940.19	1273.75	784.734	3603.08	0.0912642	1.2208
1198.9	287.781	3100.84	783.739	1152.56	3135.51	1077.15	783.72	3797.8	2.79867	34.8479
1199.1	287.581	3520.24	782.802	1509.67	3064.34	945.463	782.672	3954.26	1.63573	21.7011
1199.3	287.381	4051.92	782.204	2116.63	2751.55	865.311	781.426	4171.41	0.419752	5.97458
1199.5	287.181	5028.04	784.066	3046.25	2304.56	820.172	779.901	4615.35	-1.3014	-20.6345
1199.7	286.981	5429.42	797.682	4321.7	1845.27	796.191	778.153	5426.39	-0.00920641	-0.151688
1199.9	286.781	6795.66	857.004	5831.26	1457.61	783.435	775.885	6601.65	-0.526245	-9.70038
1200.1	286.581	7753.48	1070.55	7295.15	1174.54	776.452	773.5	7996.2	0.616375	12.1361
1200.3	286.381	8835.34	1731.04	8311.33	988.758	771.627	770.547	9491.11	1.56	32.7885
1200.5	286.181	11756.7	3508.11	8524.07	877.395	767.229	766.861	11376.2	-0.784701	-19.0253
1200.7	285.981	15307.7	7628.2	7859.85	814.038	762.072	761.954	14778.3	-0.956834	-26.4714
1200.9	285.781	21706.6	15793.7	6549.86	777.617	754.683	754.648	21611.9	-0.143766	-4.73628
1201.1	285.581	34062.6	29121.5	5002.8	752.636	743.214	743.204	33390.5	-0.814274	-33.6043
1201.3	285.381	47397.8	46090.2	3572.75	730.55	726.918	726.915	48939.6	1.58359	77.0915
1201.5	285.181	61711.6	60682	2447.48	706.501	705.199	705.199	62425.6	0.642683	35.6998
1201.7	284.981	67172.2	64943.6	1666.24	680.929	680.49	680.49	65929.8	-1.07186	-62.1182
1201.9	284.781	56859.8	56169.6	1174.9	658.153	658.016	658.016	56686.6	-0.16244	-8.66126
1202.1	284.581	38754.2	39751.8	894.445	641.765	641.724	641.724	40004.6	1.42029	62.5205
1202.3	284.381	22811	23620.3	746.927	631.882	631.871	631.871	23735.3	1.36847	46.2159
1202.5	284.181	11892.1	12148	675.808	626.784	626.781	626.781	12197	0.625321	15.2481
1202.7	283.981	6511.1	5634.5	643.683	624.208	624.208	624.208	5653.97	-2.37522	-42.8564
1202.9	283.781	3522.44	2526.53	630.079	622.829	622.829	622.829	2533.78	-3.72486	-49.4329
1203.1	283.581	2380.74	1260.87	624.46	621.944	621.944	621.944	1263.38	-5.12059	-55.8678
1203.3	283.381	1753.38	809.892	622.326	621.508	621.508	621.508	810.71	-5.03392	-47.1334
1203.5	283.181	1306.71	670.519	621.461	621.213	621.213	621.213	670.767	-3.93381	-31.7972
1203.7	282.981	1345.42	632.313	621.039	620.969	620.969	620.969	632.383	-4.34679	-35.6519
1203.9	282.781	1147.02	623.081	620.788	620.77	620.77	620.77	623.1	-3.4591	-26.1959
1204.1	282.581	846.766	621.082	620.672	620.668	620.668	620.668	621.087	-1.73418	-11.284
1204.3	282.381	900.904	620.646	620.581	620.58	620.58	620.58	620.647	-2.08787	-14.0129
1204.5	282.181	735.076	620.511	620.502	620.502	620.502	620.502	620.511	-0.944865	-5.72824
1204.7	281.981	723.83	620.438	620.436	620.436	620.436	620.436	620.438	-0.859321	-5.16962
1204.9	281.781	594.844	620.427	620.427	620.427	620.427	620.427	620.427	0.234553	1.27917
1205.1	281.581	556.102	620.388	620.388	620.388	620.388	620.388	620.388	0.609568	3.21429
1205.3	281.381	622.21	622.21	622.21	622.21	622.21	622.21	622.21	0	0
1205.5	281.181	528.26	528.26	528.26	528.26	528.26	528.26	528.26	0	0
1205.7	280.981	447.318	447.318	447.318	447.318	447.318	447.318	447.318	0	0
1205.9	280.781	294.202	294.202	294.202	294.202	294.202	294.202	294.202	0	0
1206.1	280.581	488.714	488.714	488.714	488.714	488.714	488.714	488.714	0	0
1206.3	280.381	313.368	313.368	313.368	313.368	313.368	313.368	313.368	0	0
1206.5	280.181	453.236	453.236	453.236	453.236	453.236	453.236	453.236	0	0
1206.7	279.981	314.392	314.392	314.392	314.392	314.392	314.392	314.392	0	0
1206.9	279.781	319.53	319.53	319.53	319.53	319.53	319.53	319.53	0	0
1207.1	279.581	356.824	356.824	356.824	356.824	356.824	356.824	356.824	0	0
1207.3	279.381	297.198	297.198	297.198	297.198	297.198	297.198	297.198	0	0
1207.5	279.181	364.974	364.974	364.974	364.974	364.974	364.974	364.974	0	0
1207.7	278.981	198.638	198.638	198.638	198.638	198.638	198.638	198.638	0	0
1207.9	278.781	331.902	331.902	331.902	331.902	331.902	331.902	331.902	0	0

File: 250418_C-1.3.csv
C1s Scan
	Characteristic Energy eV	1486.68	Acquisition Time s	0.05
KE_C1s Scan	BE_C1s Scan	CPS_C1s Scan	C-C/C-H_1_C1s Scan	C-O_2_C1s Scan	C=O_3_C1s Scan	O-C=O_4_C1s Scan	Background_C1s Scan	Envelope_C1s Scan	Normalised_Residual_C1s Scan	Residual_C1s Scan
1188.93	297.749	3145.04	3145.04	3145.04	3145.04	3145.04	3145.04	3145.04	0	0
1189.13	297.549	3214.82	3214.82	3214.82	3214.82	3214.82	3214.82	3214.82	0	0
1189.33	297.349	2438.3	2438.3	2438.3	2438.3	2438.3	2438.3	2438.3	0	0
1189.53	297.149	2824.14	2824.14	2824.14	2824.14	2824.14	2824.14	2824.14	0	0
1189.73	296.949	2658.76	2658.76	2658.76	2658.76	2658.76	2658.76	2658.76	0	0
1189.93	296.749	2416.96	2416.96	2416.96	2416.96	2416.96	2416.96	2416.96	0	0
1190.13	296.549	2607.28	2607.28	2607.28	2607.28	2607.28	2607.28	2607.28	0	0
1190.33	296.349	2840.9	2840.9	2840.9	2840.9	2840.9	2840.9	2840.9	0	0
1190.53	296.149	2463.56	2463.56	2463.56	2463.56	2463.56	2463.56	2463.56	0	0
1190.73	295.949	2826.54	2826.54	2826.54	2826.54	2826.54	2826.54	2826.54	0	0
1190.93	295.749	2548.36	2548.36	2548.36	2548.36	2548.36	2548.36	2548.36	0	0
1191.13	295.549	2495.16	2495.16	2495.16	2495.16	2495.16	2495.16	2495.16	0	0
1191.33	295.349	2158.9	2158.9	2158.9	2158.9	2158.9	2158.9	2158.9	0	0
1191.53	295.149	2071	2071	2071	2071	2071	2071	2071	0	0
1191.73	294.949	2268.84	2268.84	2268.84	2268.84	2268.84	2268.84	2268.84	0	0
1191.93	294.749	1856.56	1856.56	1856.56	1856.56	1856.56	1856.56	1856.56	0	0
1192.13	294.549	1871.2	1871.2	1871.2	1871.2	1871.2	1871.2	1871.2	0	0
1192.33	294.349	1632.11	1632.11	1632.11	1632.11	1632.11	1632.11	1632.11	0	0
1192.53	294.149	1634.3	1634.3	1634.3	1634.3	1634.3	1634.3	1634.3	0	0
1192.73	293.949	1679.8	1679.8	1679.8	1679.8	1679.8	1679.8	1679.8	0	0
1192.93	293.749	1614.8	1614.8	1614.8	1614.8	1614.8	1614.8	1614.8	0	0
1193.13	293.549	1717.5	1717.5	1717.5	1717.5	1717.5	1717.5	1717.5	0	0
1193.33	293.349	1596.66	1596.66	1596.66	1596.66	1596.66	1596.66	1596.66	0	0
1193.53	293.149	1383.09	1383.09	1383.09	1383.09	1383.09	1383.09	1383.09	0	0
1193.73	292.949	1155.97	1155.97	1155.97	1155.97	1155.97	1155.97	1155.97	0	0
1193.93	292.749	1012.25	1012.25	1012.25	1012.25	1012.25	1012.25	1012.25	0	0
1194.13	292.549	1006.64	1006.64	1006.64	1006.64	1006.64	1006.64	1006.64	0	0
1194.33	292.349	1046.93	1046.93	1046.93	1046.93	1046.94	1046.93	1046.94	0	0
1194.53	292.149	1001.15	1001.15	1001.15	1001.15	1001.18	1001.15	1001.19	0	0
1194.73	291.949	1105.27	1105.27	1105.27	1105.27	1105.39	1105.27	1105.39	0	0
1194.93	291.749	1440.71	1440.71	1440.71	1440.71	1441.09	1440.71	1441.09	0	0
1195.13	291.549	816.38	816.38	816.38	816.398	817.493	816.38	817.511	0	0
1195.33	291.349	917.256	917.256	917.256	917.323	920.283	917.256	920.35	0	0
1195.53	291.149	1051.84	1051.84	1051.84	1052.07	1059.54	1051.84	1059.77	0	0
1195.73	290.949	1304.7	1158.18	1158.18	1158.91	1176.47	1158.18	1177.2	-0.789306	-6.37507
1195.93	290.749	1040.37	1158.07	1158.07	1160.23	1198.67	1158.07	1200.84	1.11251	8.0238
1196.13	290.549	1327.18	1157.94	1157.94	1163.99	1242.02	1157.94	1248.07	-0.485579	-3.95558
1196.33	290.349	1391.43	1157.74	1157.74	1173.48	1319.97	1157.74	1335.72	-0.333978	-2.7857
1196.53	290.149	1495.1	1157.38	1157.38	1195.71	1447.9	1157.38	1486.24	-0.051233	-0.442966
1196.73	289.949	1944.57	1156.9	1156.91	1244.09	1637.91	1156.9	1725.11	-1.11282	-10.9728
1196.93	289.749	2306.2	1156.04	1156.1	1341.18	1886.99	1156.04	2072.18	-1.08965	-11.701
1197.13	289.549	2380.32	1154.88	1155.06	1521.29	2166.04	1154.88	2532.63	0.698078	7.61564
1197.33	289.349	2943.16	1153.22	1153.83	1827.39	2414.3	1153.22	3089.1	0.601514	7.29689
1197.53	289.149	3712.58	1150.91	1152.87	2299.61	2556.33	1150.91	3706.99	-0.0205184	-0.279555
1197.73	288.949	4271.2	1147.95	1153.77	2949.3	2541.16	1147.95	4348.34	0.263916	3.85678
1197.93	288.749	4586.52	1144.56	1160.67	3724.36	2372.87	1144.56	4968.78	1.26211	19.1128
1198.13	288.549	5548.66	1140.48	1182.2	4482.72	2109.67	1140.48	5493.63	-0.165197	-2.75158
1198.33	288.349	5565.42	1136.03	1236.94	5016.65	1826.4	1136.03	5807.94	0.726903	12.1258
1198.53	288.149	5810.64	1131.22	1359.35	5143.47	1579.36	1131.21	5819.76	0.0267536	0.456014
1198.73	287.949	5084.18	1127.48	1608.83	4814.29	1394.99	1127.47	5563.19	1.50217	23.9505
1198.93	287.749	5205.96	1123.5	2069.93	4147.49	1270.99	1123.41	5241.67	0.110662	1.78539
1199.13	287.549	4966.4	1120.23	2849.72	3351.38	1195.5	1119.77	5157.54	0.606464	9.55676
1199.33	287.349	5989.4	1117.62	4041.34	2611.28	1151.47	1115.33	5575.73	-1.19522	-20.6836
1199.53	287.149	7104.7	1120.15	5663.04	2029.41	1126.16	1110.02	6608.7	-1.31581	-24.8
1199.73	286.949	9051.42	1143.23	7567.12	1624.47	1109.88	1103.17	8135.2	-2.15342	-45.8112
1199.93	286.749	9106.96	1237.3	9389.88	1369.82	1097.97	1095.35	9808.92	1.64478	35.0978
1200.13	286.549	10403.2	1536.98	10619.3	1220.62	1087.21	1086.26	11205.3	1.75851	40.1064
1200.33	286.349	11822.2	2357.83	10826.1	1137.57	1076.44	1076.11	12169.6	0.7143	17.3666
1200.53	286.149	12587.2	4323.85	9932.31	1091.47	1065.37	1065.27	13217.2	1.25563	31.5001
1200.73	285.949	15769.6	8430.41	8251.83	1062.2	1051.77	1051.74	15641	-0.229082	-6.43261
1200.93	285.749	22251	15810.1	6298.4	1036.93	1033.04	1033.03	21079.4	-1.75627	-58.5804
1201.13	285.549	29335.4	26877.9	4508.76	1008.84	1007.49	1007.49	30380.5	1.36447	52.257
1201.33	285.349	41383.6	39906.2	3106.21	971.781	971.34	971.34	42041.5	0.723153	32.895
1201.53	285.149	51307.6	50322.5	2127.92	925.109	924.975	924.975	51525.5	0.215152	10.8974
1201.73	284.949	53904.8	52882.8	1502.64	874.163	874.125	874.125	53511.3	-0.37894	-19.6729
1201.93	284.749	47034.2	46090.8	1134.34	828.176	828.166	828.166	46397	-0.657014	-31.8615
1202.13	284.549	33758.4	33686.5	931.663	792.767	792.765	792.765	33825.4	0.0815565	3.35069
1202.33	284.349	19474.6	21106.3	830.204	771.216	771.216	771.216	21165.3	2.7091	84.5365
1202.53	284.149	12167	11655.9	782.116	758.773	758.773	758.773	11679.3	-0.988607	-24.3837
1202.73	283.949	5821.32	5888.55	761.506	752.841	752.841	752.841	5897.21	0.22242	3.79463
1202.93	283.749	3498.9	2898.27	752.583	749.59	749.59	749.59	2901.27	-2.25919	-29.8816
1203.13	283.549	2613.4	1549.94	748.579	747.608	747.608	747.608	1550.91	-4.64735	-53.1243
1203.33	283.349	1868.25	1014.51	746.689	746.396	746.396	746.396	1014.81	-4.41513	-42.6723
1203.53	283.149	1326.55	825.774	745.584	745.502	745.502	745.502	825.857	-3.07393	-25.0346
1203.73	282.949	1020.14	766.66	745.145	745.124	745.124	745.124	766.682	-1.77444	-12.6729
1203.93	282.749	913.366	749.952	744.781	744.776	744.776	744.776	749.958	-1.20903	-8.17042
1204.13	282.549	1021.92	745.632	744.519	744.518	744.518	744.518	745.633	-1.93255	-13.8141
1204.33	282.349	823.406	744.568	744.354	744.354	744.354	744.354	744.569	-0.614341	-3.94187
1204.53	282.149	908.51	744.252	744.215	744.215	744.215	744.215	744.252	-1.21856	-8.21288
1204.73	281.949	851.264	744.1	744.094	744.094	744.094	744.094	744.1	-0.821304	-5.35822
1204.93	281.749	862.282	743.947	743.946	743.946	743.946	743.946	743.947	-0.9011	-5.91674
1205.13	281.549	564.178	743.831	743.831	743.831	743.831	743.831	743.831	1.69127	8.98266
1205.33	281.349	804.868	743.751	743.751	743.751	743.751	743.751	743.751	-0.481711	-3.05586
1205.53	281.149	799.468	799.468	799.468	799.468	799.468	799.468	799.468	0	0
1205.73	280.949	525.74	525.74	525.74	525.74	525.74	525.74	525.74	0	0
1205.93	280.749	652.416	652.416	652.416	652.416	652.416	652.416	652.416	0	0
1206.13	280.549	458.192	458.192	458.192	458.192	458.192	458.192	458.192	0	0
1206.33	280.349	544.4	544.4	544.4	544.4	544.4	544.4	544.4	0	0
1206.53	280.149	452.232	452.232	452.232	452.232	452.232	452.232	452.232	0	0
1206.73	279.949	464.964	464.964	464.964	464.964	464.964	464.964	464.964	0	0
1206.93	279.749	489.648	489.648	489.648	489.648	489.648	489.648	489.648	0	0
1207.13	279.549	609.836	609.836	609.836	609.836	609.836	609.836	609.836	0	0
1207.33	279.349	372.142	372.142	372.142	372.142	372.142	372.142	372.142	0	0
1207.53	279.149	466.44	466.44	466.44	466.44	466.44	466.44	466.44	0	0
1207.73	278.949	422.728	422.728	422.728	422.728	422.728	422.728	422.728	0	0
1207.93	278.749	501.444	501.444	501.444	501.444	501.444	501.444	501.444	0	0

File: 250418_C-2.1.csv
C1s Scan
	Characteristic Energy eV	1486.68	Acquisition Time s	0.05
KE_C1s Scan	BE_C1s Scan	CPS_C1s Scan	C-C/C-H_1_C1s Scan	C-O_2_C1s Scan	C=O_3_C1s Scan	O-C=O_4_C1s Scan	Background_C1s Scan	Envelope_C1s Scan	Normalised_Residual_C1s Scan	Residual_C1s Scan
1189	297.681	3242.9	3242.9	3242.9	3242.9	3242.9	3242.9	3242.9	0	0
1189.2	297.481	2723.98	2723.98	2723.98	2723.98	2723.98	2723.98	2723.98	0	0
1189.4	297.281	2975.82	2975.82	2975.82	2975.82	2975.82	2975.82	2975.82	0	0
1189.6	297.081	2551.64	2551.64	2551.64	2551.64	2551.64	2551.64	2551.64	0	0
1189.8	296.881	2701.18	2701.18	2701.18	2701.18	2701.18	2701.18	2701.18	0	0
1190	296.681	2586.64	2586.64	2586.64	2586.64	2586.64	2586.64	2586.64	0	0
1190.2	296.481	2545.58	2545.58	2545.58	2545.58	2545.58	2545.58	2545.58	0	0
1190.4	296.281	2419.42	2419.42	2419.42	2419.42	2419.42	2419.42	2419.42	0	0
1190.6	296.081	2094.58	2094.58	2094.58	2094.58	2094.58	2094.58	2094.58	0	0
1190.8	295.881	1862.65	1862.65	1862.65	1862.65	1862.65	1862.65	1862.65	0	0
1191	295.681	2324.68	2324.68	2324.68	2324.68	2324.68	2324.68	2324.68	0	0
1191.2	295.481	1747.84	1747.84	1747.84	1747.84	1747.84	1747.84	1747.84	0	0
1191.4	295.281	1772.95	1772.95	1772.95	1772.95	1772.95	1772.95	1772.95	0	0
1191.6	295.081	1432.9	1432.9	1432.9	1432.9	1432.9	1432.9	1432.9	0	0
1191.8	294.881	1488.73	1488.73	1488.73	1488.73	1488.73	1488.73	1488.73	0	0
1192	294.681	1556.56	1556.56	1556.56	1556.56	1556.56	1556.56	1556.56	0	0
1192.2	294.481	1519.67	1519.67	1519.67	1519.67	1519.67	1519.67	1519.67	0	0
1192.4	294.281	1390.04	1390.04	1390.04	1390.04	1390.04	1390.04	1390.04	0	0
1192.6	294.081	1304.52	1304.52	1304.52	1304.52	1304.52	1304.52	1304.52	0	0
1192.8	293.881	1257.4	1257.4	1257.4	1257.4	1257.4	1257.4	1257.4	0	0
1193	293.681	1079.6	1079.6	1079.6	1079.6	1079.6	1079.6	1079.6	0	0
1193.2	293.481	987.678	987.678	987.678	987.678	987.678	987.678	987.678	0	0
1193.4	293.281	708.772	708.772	708.772	708.772	708.772	708.772	708.772	0	0
1193.6	293.081	880.09	880.09	880.09	880.09	880.09	880.09	880.09	0	0
1193.8	292.881	997.006	997.006	997.006	997.006	997.006	997.006	997.006	0	0
1194	292.681	868.21	868.21	868.21	868.21	868.21	868.21	868.21	0	0
1194.2	292.481	714.798	714.798	714.798	714.798	714.799	714.798	714.799	0	0
1194.4	292.281	660.058	660.058	660.058	660.058	660.061	660.058	660.061	0	0
1194.6	292.081	562.99	562.99	562.99	562.99	563.001	562.99	563.001	0	0
1194.8	291.881	566.19	566.19	566.19	566.19	566.229	566.19	566.229	0	0
1195	291.681	601.5	601.5	601.5	601.5	601.627	601.5	601.627	0	0
1195.2	291.481	430.28	430.28	430.28	430.28	430.66	430.28	430.66	0	0
1195.4	291.281	569.984	569.984	569.984	569.986	571.053	569.984	571.054	0	0
1195.6	291.081	445.264	481.194	481.194	481.2	483.995	481.194	484.002	0.410497	1.93688
1195.8	290.881	582.706	481.243	481.243	481.267	488.132	481.243	488.155	-0.875842	-4.72754
1196	290.681	618.684	481.308	481.308	481.387	497.08	481.308	497.16	-1.09248	-6.0762
1196.2	290.481	913.718	481.405	481.405	481.66	515.224	481.405	515.479	-2.94593	-19.912
1196.4	290.281	538.508	481.491	481.491	482.25	548.928	481.491	549.687	0.107715	0.558932
1196.6	290.081	488.246	481.513	481.514	483.628	606.835	481.513	608.951	1.2215	6.03526
1196.8	289.881	643.318	481.6	481.604	487.103	697.041	481.6	702.547	0.522164	2.96145
1197	289.681	692.324	481.713	481.728	495.113	823.26	481.713	836.674	1.22672	7.21748
1197.2	289.481	1030.74	481.945	481.999	512.394	976.661	481.945	1007.16	-0.16422	-1.17892
1197.4	289.281	990.12	482.197	482.386	546.843	1131.23	482.197	1196.06	1.46349	10.2972
1197.6	289.081	1188.7	482.577	483.202	610.43	1246.8	482.577	1375.28	1.21008	9.32902
1197.8	288.881	1595.57	483.025	484.948	718.194	1284.12	483.025	1521.22	-0.416224	-3.71766
1198	288.681	1589.75	483.584	489.144	884.015	1230.53	483.584	1636.52	0.262331	2.33883
1198.2	288.481	1465.73	484.112	499.042	1111.74	1104.79	484.112	1747.35	1.6448	14.0807
1198.4	288.281	1974.48	484.703	522.383	1382.96	948.391	484.703	1884.33	-0.453687	-4.50784
1198.6	288.081	2151.26	485.432	573.872	1648.31	799.809	485.432	2051.13	-0.482721	-5.00643
1198.8	287.881	2277.02	486.168	680.842	1835.41	681.173	486.166	2225.1	-0.24329	-2.59593
1199	287.681	2068.88	486.894	885.251	1880.69	598.617	486.87	2390.84	1.58278	16.0981
1199.2	287.481	2584.64	487.883	1248.9	1767.56	546.955	487.711	2588.17	0.0155139	0.176362
1199.4	287.281	3483.76	490.008	1835.62	1537.9	518.246	488.927	2914.99	-2.15474	-28.4383
1199.6	287.081	3530.4	496.169	2693.72	1263.76	503.671	490.19	3486.75	-0.164269	-2.18249
1199.8	286.881	4020.08	520.652	3795.03	1010.09	497.637	491.823	4347.94	1.15628	16.3932
1200	286.681	4854.06	615.246	4995.83	812.078	496.092	493.761	5437.96	1.87401	29.1951
1200.2	286.481	6070.98	947.207	6021.56	676.671	497.127	496.248	6653.82	1.67264	29.1418
1200.4	286.281	7707.06	1961.05	6549.28	594.223	499.601	499.293	8106.27	1.01682	19.9606
1200.6	286.081	10327	4638.8	6397.32	549.83	503.471	503.37	10579.3	0.555261	12.6174
1200.8	285.881	16582.4	10714.1	5616.73	530.995	509.792	509.761	15842.4	-1.28512	-37.0045
1201	285.681	27009.2	22204.4	4486.28	529.275	520.234	520.225	26179.5	-1.12882	-41.4827
1201.2	285.481	42229	39622.4	3321.95	540.921	537.312	537.309	42410.7	0.197704	9.08461
1201.4	285.281	58495	58987.2	2345.31	563.041	561.698	561.697	60772.2	2.10536	113.86
1201.6	285.081	72356	71171.4	1644.69	592.869	592.4	592.4	72224.2	-0.109583	-6.59121
1201.8	284.881	71305.6	68472.1	1198.13	624.539	624.386	624.386	69046	-1.89218	-112.982
1202	284.681	52669.6	52707.7	941.667	650.29	650.244	650.244	52999.2	0.321123	16.4792
1202.2	284.481	31623.2	33226.4	803.808	666.243	666.23	666.23	33364	2.18892	87.0398
1202.4	284.281	17381.5	17703.2	735.876	675.051	675.048	675.048	17764	0.648798	19.1266
1202.6	284.081	8986.1	8279.72	704.664	679.634	679.633	679.633	8304.75	-1.6072	-34.0675
1202.8	283.881	4695.72	3621.76	691.467	681.799	681.799	681.799	3631.43	-3.47292	-53.2146
1203	283.681	3428.02	1673.39	686.663	683.189	683.189	683.189	1676.86	-6.68789	-87.558
1203.2	283.481	2464.74	975.192	685.258	684.086	684.086	684.086	976.365	-6.70366	-74.4188
1203.4	283.281	1930.52	759.972	684.986	684.619	684.619	684.619	760.34	-5.95525	-58.5089
1203.6	283.081	1686.32	702.128	685.194	685.086	685.086	685.086	702.236	-5.35853	-49.204
1203.8	282.881	1128.64	688.643	685.312	685.283	685.283	685.283	688.673	-2.92836	-21.9981
1204	282.681	935.98	685.97	685.393	685.386	685.386	685.386	685.978	-1.82724	-12.5001
1204.2	282.481	1064.01	685.613	685.527	685.525	685.525	685.525	685.615	-2.5939	-18.9195
1204.4	282.281	663.602	685.586	685.575	685.575	685.575	685.575	685.587	0.190834	1.09924
1204.6	282.081	804.122	685.615	685.613	685.613	685.613	685.613	685.615	-0.934477	-5.92536
1204.8	281.881	549.304	549.304	549.304	549.304	549.304	549.304	549.304	0	0
1205	281.681	565.292	565.292	565.292	565.292	565.292	565.292	565.292	0	0
1205.2	281.481	527.404	527.404	527.404	527.404	527.404	527.404	527.404	0	0
1205.4	281.281	584.068	584.068	584.068	584.068	584.068	584.068	584.068	0	0
1205.6	281.081	479.412	479.412	479.412	479.412	479.412	479.412	479.412	0	0
1205.8	280.881	414.586	414.586	414.586	414.586	414.586	414.586	414.586	0	0
1206	280.681	363.482	363.482	363.482	363.482	363.482	363.482	363.482	0	0
1206.2	280.481	376.7	376.7	376.7	376.7	376.7	376.7	376.7	0	0
1206.4	280.281	360.578	360.578	360.578	360.578	360.578	360.578	360.578	0	0
1206.6	280.081	479.288	479.288	479.288	479.288	479.288	479.288	479.288	0	0
1206.8	279.881	319.924	319.924	319.924	319.924	319.924	319.924	319.924	0	0
1207	279.681	425.644	425.644	425.644	425.644	425.644	425.644	425.644	0	0
1207.2	279.481	305.144	305.144	305.144	305.144	305.144	305.144	305.144	0	0
1207.4	279.281	265.638	265.638	265.638	265.638	265.638	265.638	265.638	0	0
1207.6	279.081	269.622	269.622	269.622	269.622	269.622	269.622	269.622	0	0
1207.8	278.881	198.823	198.823	198.823	198.823	198.823	198.823	198.823	0	0
1208	278.681	429.744	429.744	429.744	429.744	429.744	429.744	429.744	0	0