Folder: stickleback_plastic_degradation/XPS (part 7)

File: 250418_195-1.3.csv
C1s Scan
	Characteristic Energy eV	1486.68	Acquisition Time s	0.05
KE_C1s Scan	BE_C1s Scan	CPS_C1s Scan	C-C/C-H_1_C1s Scan	C-O_2_C1s Scan	C=O_3_C1s Scan	O-C=O_4_C1s Scan	Background_C1s Scan	Envelope_C1s Scan	Normalised_Residual_C1s Scan	Residual_C1s Scan
1189.46	297.22	2705.36	2705.36	2705.36	2705.36	2705.36	2705.36	2705.36	0	0
1189.66	297.02	2863.98	2863.98	2863.98	2863.98	2863.98	2863.98	2863.98	0	0
1189.86	296.82	2726.26	2726.26	2726.26	2726.26	2726.26	2726.26	2726.26	0	0
1190.06	296.62	2711.98	2711.98	2711.98	2711.98	2711.98	2711.98	2711.98	0	0
1190.26	296.42	2626.66	2626.66	2626.66	2626.66	2626.66	2626.66	2626.66	0	0
1190.46	296.22	2414.18	2414.18	2414.18	2414.18	2414.18	2414.18	2414.18	0	0
1190.66	296.02	3164.36	3164.36	3164.36	3164.36	3164.36	3164.36	3164.36	0	0
1190.86	295.82	2570.24	2570.24	2570.24	2570.24	2570.24	2570.24	2570.24	0	0
1191.06	295.62	2604.4	2604.4	2604.4	2604.4	2604.4	2604.4	2604.4	0	0
1191.26	295.42	2641.02	2641.02	2641.02	2641.02	2641.02	2641.02	2641.02	0	0
1191.46	295.22	1931.82	1931.82	1931.82	1931.82	1931.82	1931.82	1931.82	0	0
1191.66	295.02	2751.72	2751.72	2751.72	2751.72	2751.72	2751.72	2751.72	0	0
1191.86	294.82	2379.12	2379.12	2379.12	2379.12	2379.12	2379.12	2379.12	0	0
1192.06	294.62	2243.96	2243.96	2243.96	2243.96	2243.96	2243.96	2243.96	0	0
1192.26	294.42	2676.58	2676.58	2676.58	2676.58	2676.58	2676.58	2676.58	0	0
1192.46	294.22	2361.34	2361.34	2361.34	2361.34	2361.34	2361.34	2361.34	0	0
1192.66	294.02	2451.68	2451.68	2451.68	2451.68	2451.68	2451.68	2451.68	0	0
1192.86	293.82	2287.88	2287.88	2287.88	2287.88	2287.88	2287.88	2287.88	0	0
1193.06	293.62	2721.6	2721.6	2721.6	2721.6	2721.6	2721.6	2721.6	0	0
1193.26	293.42	2377.54	2377.54	2377.54	2377.54	2377.54	2377.54	2377.54	0	0
1193.46	293.22	2553	2553	2553	2553	2553	2553	2553	0	0
1193.66	293.02	2502.18	2502.18	2502.18	2502.18	2502.18	2502.18	2502.18	0	0
1193.86	292.82	2215.74	2215.74	2215.74	2215.74	2215.74	2215.74	2215.74	0	0
1194.06	292.62	2800.82	2800.82	2800.82	2800.82	2800.82	2800.82	2800.82	0	0
1194.26	292.42	2623.86	2623.86	2623.86	2623.86	2623.86	2623.86	2623.86	0	0
1194.46	292.22	2526.96	2526.96	2526.96	2526.96	2526.97	2526.96	2526.97	0	0
1194.66	292.02	2165.78	2165.78	2165.78	2165.78	2165.8	2165.78	2165.8	0	0
1194.86	291.82	2274.06	2274.06	2274.06	2274.06	2274.14	2274.06	2274.14	0	0
1195.06	291.62	2407.32	2407.32	2407.32	2407.32	2407.58	2407.32	2407.58	0	0
1195.26	291.42	2219.12	2219.12	2219.12	2219.12	2219.91	2219.12	2219.91	0	0
1195.46	291.22	2054.2	2054.2	2054.2	2054.2	2056.45	2054.2	2056.45	0	0
1195.66	291.02	2451.24	2304.81	2304.81	2304.82	2310.79	2304.81	2310.79	-0.634324	-7.02246
1195.86	290.82	2339.38	2304.74	2304.74	2304.75	2319.59	2304.74	2319.59	-0.0914892	-0.989476
1196.06	290.62	2436.28	2304.54	2304.54	2304.55	2338.94	2304.54	2338.95	-0.440946	-4.86669
1196.26	290.42	1895.01	2304.15	2304.15	2304.18	2378.7	2304.15	2378.73	2.4847	24.186
1196.46	290.22	2056.72	2303.95	2303.95	2304.05	2454.43	2303.95	2454.52	1.96138	19.89
1196.66	290.02	2370.64	2303.71	2303.72	2303.98	2586.7	2303.71	2586.96	0.993468	10.8161
1196.86	289.82	2664.64	2302.83	2302.84	2303.52	2795.82	2302.83	2796.52	0.571268	6.59393
1197.06	289.62	3100.42	2301.86	2301.9	2303.54	3094.53	2301.86	3096.25	-0.0167457	-0.208497
1197.26	289.42	3646.48	2300.53	2300.66	2304.38	3466.91	2300.53	3470.88	-0.650226	-8.77983
1197.46	289.22	3626.78	2298.53	2298.94	2306.7	3855.76	2298.53	3864.34	0.882045	11.8778
1197.66	289.02	4286.18	2295.79	2297.01	2312.03	4164.44	2295.79	4181.9	-0.356179	-5.21421
1197.86	288.82	4236.34	2292.58	2296	2322.52	4291.3	2292.58	4324.65	0.303392	4.41555
1198.06	288.62	4472.28	2289.17	2298.11	2340.36	4190.47	2289.16	4250.61	-0.741171	-11.0833
1198.26	288.42	3971.08	2286.28	2308.2	2366.81	3896.96	2286.28	3999.42	0.100546	1.41679
1198.46	288.22	3757.68	2284.13	2334.27	2399.9	3509.01	2284.11	3674.99	-0.301628	-4.13444
1198.66	288.02	3109.76	2282.57	2389.69	2433.14	3126.41	2282.46	3384.42	1.10134	13.7331
1198.86	287.82	2769.08	2281.72	2494.9	2457.03	2812.7	2281.31	3202.44	1.84146	21.6678
1199.06	287.62	3053.42	2281.81	2676.18	2462.92	2588.93	2280.29	3168.98	0.467639	5.77816
1199.26	287.42	3600.88	2283.53	2957.88	2446.97	2444.17	2278.36	3297.45	-1.13066	-15.1713
1199.46	287.22	4142.12	2292.33	3350.87	2415.16	2359.25	2276.19	3589.05	-1.92155	-27.6534
1199.66	287.02	4331.78	2320.21	3826.78	2376.54	2312.21	2273.54	4015.11	-1.07586	-15.8334
1199.86	286.82	4440.96	2394.8	4303.04	2339.43	2286.99	2270.11	4513.92	0.244801	3.64784
1200.06	286.62	4855.02	2574.19	4653.63	2309.13	2273.21	2266.36	5011.08	0.500812	7.80288
1200.26	286.42	5343.74	2963.46	4758.3	2286.01	2264.29	2261.68	5487.02	0.438268	7.16386
1200.46	286.22	5738.22	3731.6	4578.38	2269.56	2257.63	2256.7	6067.06	0.970691	16.442
1200.66	286.02	7388.36	5098.51	4174.68	2255.82	2249.82	2249.51	7030.29	-0.93149	-17.9035
1200.86	285.82	8557.66	7273.23	3675.49	2243.03	2240.23	2240.13	8711.58	0.372056	7.6961
1201.06	285.62	11042.2	10298.7	3198.77	2228.61	2227.39	2227.37	11271.3	0.487701	11.4595
1201.26	285.42	14975.4	13839.6	2810.71	2209.38	2208.89	2208.89	14441.9	-0.974755	-26.6728
1201.46	285.22	16661.6	17068.3	2531.75	2187.65	2187.47	2187.47	17412.8	1.3014	37.5624
1201.66	285.02	19571.7	18877.2	2344.04	2161.7	2161.64	2161.64	19059.7	-0.818312	-25.5987
1201.86	284.82	18184.2	18521.7	2226.48	2136.39	2136.37	2136.37	18611.9	0.709167	21.3836
1202.06	284.62	15878.3	16147.9	2155.83	2114.42	2114.41	2114.41	16189.3	0.551849	15.5492
1202.26	284.42	13252	12682.2	2114.18	2096.34	2096.34	2096.34	12700.1	-1.07209	-27.5967
1202.46	284.22	9659.68	9199.64	2091.95	2084.8	2084.8	2084.8	9206.78	-1.03039	-22.6449
1202.66	284.02	6834.9	6386.56	2079.15	2076.46	2076.46	2076.46	6389.26	-1.20534	-22.2822
1202.86	283.82	5162.3	4447.12	2072.43	2071.49	2071.49	2071.49	4448.06	-2.22284	-35.712
1203.06	283.62	3789.26	3267.69	2068.64	2068.34	2068.33	2068.33	3268	-1.89348	-26.0629
1203.26	283.42	3490.52	2623.14	2066.22	2066.12	2066.12	2066.12	2623.24	-3.28246	-43.3641
1203.46	283.22	2948.16	2303.16	2064.6	2064.57	2064.57	2064.57	2303.19	-2.65614	-32.2486
1203.66	283.02	2246.16	2158.4	2064.02	2064.02	2064.02	2064.02	2158.4	-0.414045	-4.38786
1203.86	282.82	2447.32	2098.02	2063.51	2063.51	2063.51	2063.51	2098.03	-1.57881	-17.4647
1204.06	282.62	2347.98	2074.98	2063.29	2063.29	2063.29	2063.29	2074.98	-1.2598	-13.6501
1204.26	282.42	1890.25	2066.75	2063.09	2063.09	2063.09	2063.09	2066.75	0.907771	8.82513
1204.46	282.22	1990.85	2063.85	2062.79	2062.79	2062.79	2062.79	2063.85	0.365868	3.6503
1204.66	282.02	1832.85	2062.76	2062.47	2062.47	2062.47	2062.47	2062.76	1.20081	11.4953
1204.86	281.82	2303.34	2062.26	2062.19	2062.19	2062.19	2062.19	2062.26	-1.12325	-12.0542
1205.06	281.62	2242.84	2061.78	2061.76	2061.76	2061.76	2061.76	2061.78	-0.854904	-9.05319
1205.26	281.42	2161.48	2061.61	2061.6	2061.6	2061.6	2061.6	2061.61	-0.480352	-4.99368
1205.46	281.22	2245.4	2061.36	2061.36	2061.36	2061.36	2061.36	2061.36	-0.868471	-9.2021
1205.66	281.02	1544.38	1544.38	1544.38	1544.38	1544.38	1544.38	1544.38	0	0
1205.86	280.82	1906.03	1906.03	1906.03	1906.03	1906.03	1906.03	1906.03	0	0
1206.06	280.62	1654.18	1654.18	1654.18	1654.18	1654.18	1654.18	1654.18	0	0
1206.26	280.42	1986.14	1986.14	1986.14	1986.14	1986.14	1986.14	1986.14	0	0
1206.46	280.22	2222.26	2222.26	2222.26	2222.26	2222.26	2222.26	2222.26	0	0
1206.66	280.02	2021.96	2021.96	2021.96	2021.96	2021.96	2021.96	2021.96	0	0
1206.86	279.82	1676.97	1676.97	1676.97	1676.97	1676.97	1676.97	1676.97	0	0
1207.06	279.62	2136.02	2136.02	2136.02	2136.02	2136.02	2136.02	2136.02	0	0
1207.26	279.42	1957.21	1957.21	1957.21	1957.21	1957.21	1957.21	1957.21	0	0
1207.46	279.22	1730.88	1730.88	1730.88	1730.88	1730.88	1730.88	1730.88	0	0
1207.66	279.02	1746.86	1746.86	1746.86	1746.86	1746.86	1746.86	1746.86	0	0
1207.86	278.82	1916	1916	1916	1916	1916	1916	1916	0	0
1208.06	278.62	1741.02	1741.02	1741.02	1741.02	1741.02	1741.02	1741.02	0	0
1208.26	278.42	1776.63	1776.63	1776.63	1776.63	1776.63	1776.63	1776.63	0	0
1208.46	278.22	2027.6	2027.6	2027.6	2027.6	2027.6	2027.6	2027.6	0	0

File: 250418_195-2.2.csv
C1s Scan
	Characteristic Energy eV	1486.68	Acquisition Time s	0.05
KE_C1s Scan	BE_C1s Scan	CPS_C1s Scan	C-C/C-H_1_C1s Scan	C-O_2_C1s Scan	C=O_3_C1s Scan	O-C=O_4_C1s Scan	Background_C1s Scan	Envelope_C1s Scan	Normalised_Residual_C1s Scan	Residual_C1s Scan
1188.89	297.786	1444.07	1444.07	1444.07	1444.07	1444.07	1444.07	1444.07	0	0
1189.09	297.586	1284.01	1284.01	1284.01	1284.01	1284.01	1284.01	1284.01	0	0
1189.29	297.386	1149.7	1149.7	1149.7	1149.7	1149.7	1149.7	1149.7	0	0
1189.49	297.186	1080.56	1080.56	1080.56	1080.56	1080.56	1080.56	1080.56	0	0
1189.69	296.986	1377.7	1377.7	1377.7	1377.7	1377.7	1377.7	1377.7	0	0
1189.89	296.786	1351.43	1351.43	1351.43	1351.43	1351.43	1351.43	1351.43	0	0
1190.09	296.586	1234.84	1234.84	1234.84	1234.84	1234.84	1234.84	1234.84	0	0
1190.29	296.386	1249.94	1249.94	1249.94	1249.94	1249.94	1249.94	1249.94	0	0
1190.49	296.186	1097.66	1097.66	1097.66	1097.66	1097.66	1097.66	1097.66	0	0
1190.69	295.986	1017.2	1017.2	1017.2	1017.2	1017.2	1017.2	1017.2	0	0
1190.89	295.786	1090.81	1090.81	1090.81	1090.81	1090.81	1090.81	1090.81	0	0
1191.09	295.586	1199.21	1199.21	1199.21	1199.21	1199.21	1199.21	1199.21	0	0
1191.29	295.386	892.54	892.54	892.54	892.54	892.54	892.54	892.54	0	0
1191.49	295.186	923.2	923.2	923.2	923.2	923.2	923.2	923.2	0	0
1191.69	294.986	953.22	953.22	953.22	953.22	953.22	953.22	953.22	0	0
1191.89	294.786	866.336	866.336	866.336	866.336	866.336	866.336	866.336	0	0
1192.09	294.586	879.394	879.394	879.394	879.394	879.394	879.394	879.394	0	0
1192.29	294.386	922.658	922.658	922.658	922.658	922.658	922.658	922.658	0	0
1192.49	294.186	725.698	725.698	725.698	725.698	725.698	725.698	725.698	0	0
1192.69	293.986	436.634	436.634	436.634	436.634	436.634	436.634	436.634	0	0
1192.89	293.786	641.806	641.806	641.806	641.806	641.806	641.806	641.806	0	0
1193.09	293.586	771.248	771.248	771.248	771.248	771.248	771.248	771.248	0	0
1193.29	293.386	411.688	411.688	411.688	411.688	411.688	411.688	411.688	0	0
1193.49	293.186	742.436	742.436	742.436	742.436	742.436	742.436	742.436	0	0
1193.69	292.986	609.058	609.058	609.058	609.058	609.058	609.058	609.058	0	0
1193.89	292.786	534.304	534.304	534.304	534.304	534.304	534.304	534.304	0	0
1194.09	292.586	396.628	396.628	396.628	396.628	396.629	396.628	396.629	0	0
1194.29	292.386	325.57	325.57	325.57	325.57	325.574	325.57	325.574	0	0
1194.49	292.186	319.238	319.238	319.238	319.238	319.253	319.238	319.253	0	0
1194.69	291.986	510.884	510.884	510.884	510.885	510.932	510.884	510.933	0	0
1194.89	291.786	364.658	364.658	364.658	364.66	364.801	364.658	364.803	0	0
1195.09	291.586	436.774	436.774	436.774	436.783	437.172	436.774	437.181	0	0
1195.29	291.386	352.178	352.178	352.178	352.212	353.208	352.178	353.242	0	0
1195.49	291.186	543.46	543.46	543.46	543.578	545.968	543.46	546.086	0	0
1195.69	290.986	233.836	428.184	428.184	428.562	433.86	428.184	434.238	2.93043	10.0201
1195.89	290.786	347.934	428.159	428.159	429.294	440.2	428.159	441.335	1.11966	4.67004
1196.09	290.586	360.026	428.143	428.143	431.312	451.873	428.143	455.042	1.11973	4.75079
1196.29	290.386	494.22	428.124	428.124	436.435	471.704	428.124	480.015	-0.142882	-0.71027
1196.49	290.186	397.526	428.096	428.097	448.383	502.062	428.096	522.349	1.3999	6.24115
1196.69	289.986	839.34	427.953	427.954	474.376	543.592	427.953	590.018	-1.92432	-12.4661
1196.89	289.786	584.898	427.863	427.87	526.776	592.825	427.863	691.743	0.987872	5.34227
1197.09	289.586	876.646	427.712	427.738	624.582	640.497	427.712	837.392	-0.296453	-1.9627
1197.29	289.386	1161.48	427.455	427.545	791.264	673.466	427.455	1037.37	-0.814355	-6.20591
1197.49	289.186	1539.3	427.058	427.365	1050.44	680.098	427.058	1303.78	-1.34227	-11.7757
1197.69	288.986	1422.22	426.65	427.617	1409.65	658.158	426.65	1642.12	1.30384	10.995
1197.89	288.786	2064.46	426	428.861	1842.73	614.998	426	2034.59	-0.146991	-1.49341
1198.09	288.586	2467.32	425.198	433.073	2273.49	564.101	425.198	2420.27	-0.211813	-2.35262
1198.29	288.386	2749.58	424.154	444.488	2586.1	516.948	424.154	2699.23	-0.214714	-2.51755
1198.49	288.186	2811.96	423.181	472.09	2676.11	479.985	423.181	2781.82	-0.127091	-1.50696
1198.69	287.986	2622.76	422.247	532.461	2508.36	454.381	422.244	2650.72	0.122068	1.39787
1198.89	287.786	2216.36	421.434	652.668	2145.06	438.267	421.417	2393.18	0.839823	8.84082
1199.09	287.586	2252.32	420.666	873.62	1701.07	428.806	420.568	2162.46	-0.423392	-4.49306
1199.29	287.386	2026.72	420.391	1243.27	1283.47	423.629	419.879	2111.12	0.419214	4.22005
1199.49	287.186	2518.26	421.468	1805.35	952.753	420.686	419.088	2343	-0.780949	-8.7631
1199.69	286.986	3017.54	427.958	2562.25	722.233	418.679	418.044	2876.99	-0.572142	-7.02774
1199.89	286.786	3740.64	453.664	3442.18	577.55	416.895	416.659	3640.31	-0.366795	-5.01628
1200.09	286.586	4412.66	538.807	4271.32	494.147	415.065	414.983	4474.39	0.207789	3.08643
1200.29	286.386	5667.8	784.316	4810.91	449.326	413.002	412.975	5218.62	-1.33412	-22.4588
1200.49	286.186	5682.88	1407.85	4876.56	426.411	410.84	410.832	5889.16	0.611865	10.3139
1200.69	285.986	6441.44	2798.63	4437.29	414.555	408.315	408.312	6833.84	1.09327	19.6202
1200.89	285.786	8788.96	5495.46	3654.13	407.21	404.874	404.873	8747.05	-0.0999715	-2.0957
1201.09	285.586	13226.7	9942.53	2760.63	400.733	399.916	399.916	12304.1	-1.79387	-46.1319
1201.29	285.386	17078.3	15916.4	1953.09	393.443	393.175	393.175	17476.6	0.681581	19.917
1201.49	285.186	22153.6	21892.8	1331.17	384.451	384.37	384.369	22839.7	1.03073	34.3046
1201.69	284.986	25294	25287.1	903.627	373.562	373.539	373.539	25817.2	0.735641	26.1613
1201.89	284.786	24348.4	24230.8	639.049	362.884	362.878	362.878	24506.9	0.22718	7.92666
1202.09	284.586	19674.8	19327.9	487.419	353.859	353.857	353.857	19461.5	-0.340103	-10.6672
1202.29	284.386	12663.7	13056.9	408.201	347.686	347.686	347.686	13117.5	0.901555	22.686
1202.49	284.186	7320.1	7658.29	369.644	344.161	344.161	344.161	7683.77	0.950471	18.1837
1202.69	283.986	3786.28	4020.62	352.436	342.349	342.349	342.349	4030.7	0.888222	12.2212
1202.89	283.786	2327.78	1977.1	345.082	341.375	341.375	341.375	1980.81	-1.60808	-17.3486
1203.09	283.586	1203.47	988.663	342.074	340.791	340.791	340.791	989.946	-1.37628	-10.676
1203.29	283.386	888.324	569.969	340.898	340.487	340.487	340.487	570.381	-2.38533	-15.8972
1203.49	283.186	969.148	413.108	340.412	340.288	340.288	340.288	413.232	-3.99299	-27.7958
1203.69	282.986	577.41	360.864	340.185	340.15	340.15	340.15	360.899	-2.01476	-10.8256
1203.89	282.786	546.272	345.357	340.085	340.076	340.076	340.076	345.366	-1.92209	-10.0453
1204.09	282.586	387.182	341.251	340.047	340.044	340.044	340.044	341.253	-0.52193	-2.29644
1204.29	282.386	347.238	340.272	340.025	340.025	340.025	340.025	340.272	-0.0835861	-0.348283
1204.49	282.186	323.744	340.052	340.007	340.006	340.006	340.006	340.052	0.202664	0.815385
1204.69	281.986	338.28	340.011	340.003	340.003	340.003	340.003	340.011	0.0210419	0.0865384
1204.89	281.786	351.916	339.994	339.993	339.993	339.993	339.993	339.994	-0.142104	-0.596087
1205.09	281.586	398.33	339.965	339.965	339.965	339.965	339.965	339.965	-0.653909	-2.91826
1205.29	281.386	235.696	235.696	235.696	235.696	235.696	235.696	235.696	0	0
1205.49	281.186	255.502	255.502	255.502	255.502	255.502	255.502	255.502	0	0
1205.69	280.986	309.008	309.008	309.008	309.008	309.008	309.008	309.008	0	0
1205.89	280.786	302.19	302.19	302.19	302.19	302.19	302.19	302.19	0	0
1206.09	280.586	239.244	239.244	239.244	239.244	239.244	239.244	239.244	0	0
1206.29	280.386	307.164	307.164	307.164	307.164	307.164	307.164	307.164	0	0
1206.49	280.186	175.768	175.768	175.768	175.768	175.768	175.768	175.768	0	0
1206.69	279.986	138.543	138.543	138.543	138.543	138.543	138.543	138.543	0	0
1206.89	279.786	90.2654	90.2654	90.2654	90.2654	90.2654	90.2654	90.2654	0	0
1207.09	279.586	159.705	159.705	159.705	159.705	159.705	159.705	159.705	0	0
1207.29	279.386	163.528	163.528	163.528	163.528	163.528	163.528	163.528	0	0
1207.49	279.186	176.359	176.359	176.359	176.359	176.359	176.359	176.359	0	0
1207.69	278.986	198.173	198.173	198.173	198.173	198.173	198.173	198.173	0	0
1207.89	278.786	106.158	106.158	106.158	106.158	106.158	106.158	106.158	0	0

File: 250418_195-2.3.csv
C1s Scan
	Characteristic Energy eV	1486.68	Acquisition Time s	0.05
KE_C1s Scan	BE_C1s Scan	CPS_C1s Scan	C-C/C-H_1_C1s Scan	C-O_2_C1s Scan	C=O_3_C1s Scan	O-C=O_4_C1s Scan	Background_C1s Scan	Envelope_C1s Scan	Normalised_Residual_C1s Scan	Residual_C1s Scan
1188.86	297.816	1182.45	1182.45	1182.45	1182.45	1182.45	1182.45	1182.45	0	0
1189.06	297.616	1153.98	1153.98	1153.98	1153.98	1153.98	1153.98	1153.98	0	0
1189.26	297.416	1226.73	1226.73	1226.73	1226.73	1226.73	1226.73	1226.73	0	0
1189.46	297.216	1307.95	1307.95	1307.95	1307.95	1307.95	1307.95	1307.95	0	0
1189.66	297.016	1182.23	1182.23	1182.23	1182.23	1182.23	1182.23	1182.23	0	0
1189.86	296.816	987.51	987.51	987.51	987.51	987.51	987.51	987.51	0	0
1190.06	296.616	1211.56	1211.56	1211.56	1211.56	1211.56	1211.56	1211.56	0	0
1190.26	296.416	1293.88	1293.88	1293.88	1293.88	1293.88	1293.88	1293.88	0	0
1190.46	296.216	1088.02	1088.02	1088.02	1088.02	1088.02	1088.02	1088.02	0	0
1190.66	296.016	1090.29	1090.29	1090.29	1090.29	1090.29	1090.29	1090.29	0	0
1190.86	295.816	936.024	936.024	936.024	936.024	936.024	936.024	936.024	0	0
1191.06	295.616	1010.85	1010.85	1010.85	1010.85	1010.85	1010.85	1010.85	0	0
1191.26	295.416	817.734	817.734	817.734	817.734	817.734	817.734	817.734	0	0
1191.46	295.216	1012.83	1012.83	1012.83	1012.83	1012.83	1012.83	1012.83	0	0
1191.66	295.016	868.132	868.132	868.132	868.132	868.132	868.132	868.132	0	0
1191.86	294.816	1172.04	1172.04	1172.04	1172.04	1172.04	1172.04	1172.04	0	0
1192.06	294.616	783.182	783.182	783.182	783.182	783.182	783.182	783.182	0	0
1192.26	294.416	640.794	640.794	640.794	640.794	640.794	640.794	640.794	0	0
1192.46	294.216	683.752	683.752	683.752	683.752	683.752	683.752	683.752	0	0
1192.66	294.016	557.766	557.766	557.766	557.766	557.766	557.766	557.766	0	0
1192.86	293.816	377.352	377.352	377.352	377.352	377.352	377.352	377.352	0	0
1193.06	293.616	741.196	741.196	741.196	741.196	741.196	741.196	741.196	0	0
1193.26	293.416	489.794	489.794	489.794	489.794	489.794	489.794	489.794	0	0
1193.46	293.216	554.682	554.682	554.682	554.682	554.682	554.682	554.682	0	0
1193.66	293.016	280.384	280.384	280.384	280.384	280.384	280.384	280.384	0	0
1193.86	292.816	564.426	564.426	564.426	564.426	564.426	564.426	564.426	0	0
1194.06	292.616	645.612	645.612	645.612	645.612	645.613	645.612	645.613	0	0
1194.26	292.416	389.876	389.876	389.876	389.876	389.88	389.876	389.88	0	0
1194.46	292.216	439.142	439.142	439.142	439.142	439.156	439.142	439.156	0	0
1194.66	292.016	370.396	370.396	370.396	370.396	370.443	370.396	370.443	0	0
1194.86	291.816	484.87	484.87	484.87	484.871	485.015	484.87	485.016	0	0
1195.06	291.616	432.352	432.352	432.352	432.358	432.765	432.352	432.77	0	0
1195.26	291.416	400.776	400.776	400.776	400.797	401.883	400.776	401.904	0	0
1195.46	291.216	396.926	396.926	396.926	397	399.69	396.926	399.763	0	0
1195.66	291.016	427.558	319.153	319.153	319.393	325.625	319.153	325.866	-1.0997	-5.0846
1195.86	290.816	339.718	319.146	319.146	319.886	333.25	319.146	333.99	-0.0694927	-0.286407
1196.06	290.616	370.942	319.135	319.135	321.248	347.892	319.135	350.005	-0.243077	-1.04684
1196.26	290.416	198.998	319.118	319.118	324.792	373.555	319.118	379.23	2.85687	9.01156
1196.46	290.216	386.442	319.107	319.108	333.267	414.889	319.107	429.049	0.48465	2.13037
1196.66	290.016	345.56	319.102	319.105	352.291	474.417	319.102	507.609	1.94926	8.10244
1196.86	289.816	628.688	319.047	319.059	391.378	549.997	319.047	622.341	-0.0566056	-0.317367
1197.06	289.616	889.726	318.954	318.999	466.542	630.754	318.954	778.387	-0.834651	-5.56696
1197.26	289.416	1340.14	318.766	318.924	598.233	697.272	318.766	976.896	-2.21874	-18.1621
1197.46	289.216	1205.49	318.598	319.116	810.644	728.856	318.598	1221.42	0.102608	0.796613
1197.66	289.016	1242.61	318.422	320	1116.69	713.319	318.422	1513.16	1.71622	13.5277
1197.86	288.816	2039.34	318.096	322.608	1505.86	656.849	318.096	1849.13	-0.941836	-9.51054
1198.06	288.616	2233.38	317.732	329.737	1922.37	578.131	317.732	2194.77	-0.182674	-1.93038
1198.26	288.416	2249.9	317.302	347.267	2266.62	498.442	317.302	2477.73	1.07402	11.3914
1198.46	288.216	2545.24	316.866	386.54	2431.23	432.04	316.865	2616.09	0.314001	3.54226
1198.66	288.016	2812.74	316.38	468.03	2353.22	383.713	316.37	2572.23	-1.01403	-12.0255
1198.86	287.816	2347.06	315.983	623.238	2064.4	352.46	315.926	2408.31	0.282683	3.06229
1199.06	287.616	1685.39	315.856	895.906	1660.58	333.948	315.564	2259.6	3.12759	28.7107
1199.26	287.416	2369.88	316.502	1330.56	1251.42	323.825	315.176	2276.79	-0.427595	-4.65459
1199.46	287.216	2916.5	320.148	1954.69	910.319	318.502	314.716	2559.51	-1.47812	-17.8495
1199.66	287.016	3540.56	334.227	2739.28	662.593	315.668	314.114	3109.43	-1.62016	-21.5565
1199.86	286.816	4020.36	380.982	3568.6	502.483	313.963	313.369	3825.92	-0.685715	-9.72212
1200.06	286.616	4609.1	517.53	4241.06	407.797	312.782	312.569	4541.46	-0.222785	-3.38204
1200.26	286.416	4857.56	872.293	4539.48	356.468	311.726	311.655	5145	0.922204	14.3721
1200.46	286.216	5772.54	1698.92	4355.65	330.189	310.583	310.561	5763.66	-0.0261417	-0.444123
1200.66	286.016	6458.44	3399.12	3756.11	317.394	309.34	309.334	6853.96	1.10049	19.7758
1200.86	285.816	9443.2	6454.43	2942.21	310.668	307.588	307.587	9092.14	-0.807796	-17.5528
1201.06	285.616	12754.6	11148.5	2128.63	306.249	305.144	305.144	12973.1	0.432498	10.922
1201.26	285.416	17346.9	17021.3	1455.08	302.125	301.756	301.756	18175	1.40589	41.4046
1201.46	285.216	22575.2	22449.7	969.343	297.458	297.343	297.343	23121.8	0.813458	27.3298
1201.66	285.016	25985.4	25128.6	654.829	292.227	292.193	292.193	25491.3	-0.685436	-24.7068
1201.86	284.816	23463.8	23640.9	469.258	287.238	287.228	287.228	23822.9	0.524266	17.9571
1202.06	284.616	18859.9	18800.7	368.163	282.997	282.994	282.994	18885.8	0.0422154	1.29636
1202.26	284.416	12298.3	12831.7	317.355	280.148	280.147	280.147	12868.9	1.15054	28.5304
1202.46	284.216	6903.56	7678.34	293.626	278.439	278.438	278.438	7693.53	2.12597	39.4983
1202.66	284.016	3931.9	4130.92	283.301	277.508	277.508	277.508	4136.72	0.730375	10.2408
1202.86	283.816	2579.44	2066.48	279.064	276.998	276.998	276.998	2068.55	-2.24932	-25.5446
1203.06	283.616	1523.45	1022.92	277.406	276.718	276.718	276.718	1023.61	-2.86352	-24.9919
1203.26	283.416	928.108	557.849	276.775	276.56	276.56	276.56	558.063	-2.71607	-18.5022
1203.46	283.216	578.3	372.143	276.553	276.491	276.491	276.491	372.205	-1.91635	-10.3047
1203.66	283.016	593.648	305.756	276.443	276.426	276.426	276.426	305.773	-2.64195	-14.3937
1203.86	282.816	578.334	284.542	276.374	276.37	276.37	276.37	284.546	-2.73168	-14.6894
1204.06	282.616	500.448	278.368	276.313	276.312	276.312	276.312	278.369	-2.21979	-11.1039
1204.26	282.416	356.576	276.731	276.266	276.266	276.266	276.266	276.732	-0.945481	-3.99221
1204.46	282.216	327.942	276.331	276.235	276.235	276.235	276.235	276.331	-0.63728	-2.58056
1204.66	282.016	336.096	276.244	276.226	276.226	276.226	276.226	276.244	-0.73002	-2.99262
1204.86	281.816	238.668	276.222	276.22	276.22	276.22	276.22	276.222	0.543563	1.87772
1205.06	281.616	291.228	276.216	276.216	276.216	276.216	276.216	276.216	-0.196695	-0.750578
1205.26	281.416	199.26	199.26	199.26	199.26	199.26	199.26	199.26	0	0
1205.46	281.216	241.73	241.73	241.73	241.73	241.73	241.73	241.73	0	0
1205.66	281.016	160.794	160.794	160.794	160.794	160.794	160.794	160.794	0	0
1205.86	280.816	304.842	304.842	304.842	304.842	304.842	304.842	304.842	0	0
1206.06	280.616	205.338	205.338	205.338	205.338	205.338	205.338	205.338	0	0
1206.26	280.416	186.245	186.245	186.245	186.245	186.245	186.245	186.245	0	0
1206.46	280.216	133.246	133.246	133.246	133.246	133.246	133.246	133.246	0	0
1206.66	280.016	116.843	116.843	116.843	116.843	116.843	116.843	116.843	0	0
1206.86	279.816	107.678	107.678	107.678	107.678	107.678	107.678	107.678	0	0
1207.06	279.616	187.649	187.649	187.649	187.649	187.649	187.649	187.649	0	0
1207.26	279.416	237.332	237.332	237.332	237.332	237.332	237.332	237.332	0	0
1207.46	279.216	185.346	185.346	185.346	185.346	185.346	185.346	185.346	0	0
1207.66	279.016	48.5846	48.5846	48.5846	48.5846	48.5846	48.5846	48.5846	0	0
1207.86	278.816	90.6826	90.6826	90.6826	90.6826	90.6826	90.6826	90.6826	0	0