Folder: stickleback_plastic_degradation/XPS (part 4)

File: 241019_C-3.2.csv
C1s Scan
	Characteristic Energy eV	1486.68	Acquisition Time s	0.05
KE_C1s Scan	BE_C1s Scan	CPS_C1s Scan	C-C/C-H_1_C1s Scan	C-O_2_C1s Scan	C=O_3_C1s Scan	O-C=O_4_C1s Scan	Background_C1s Scan	Envelope_C1s Scan	Normalised_Residual_C1s Scan	Residual_C1s Scan
1188.95	297.725	1813.58	1813.58	1813.58	1813.58	1813.58	1813.58	1813.58	0	0
1189.15	297.525	1952.84	1952.84	1952.84	1952.84	1952.84	1952.84	1952.84	0	0
1189.35	297.325	1738.41	1738.41	1738.41	1738.41	1738.41	1738.41	1738.41	0	0
1189.55	297.125	1868.95	1868.95	1868.95	1868.95	1868.95	1868.95	1868.95	0	0
1189.75	296.925	1691.77	1691.77	1691.77	1691.77	1691.77	1691.77	1691.77	0	0
1189.95	296.725	1941.44	1941.44	1941.44	1941.44	1941.44	1941.44	1941.44	0	0
1190.15	296.525	1451.67	1451.67	1451.67	1451.67	1451.67	1451.67	1451.67	0	0
1190.35	296.325	1353.64	1353.64	1353.64	1353.64	1353.64	1353.64	1353.64	0	0
1190.55	296.125	1512.5	1512.5	1512.5	1512.5	1512.5	1512.5	1512.5	0	0
1190.75	295.925	1532.88	1532.88	1532.88	1532.88	1532.88	1532.88	1532.88	0	0
1190.95	295.725	1191.4	1191.4	1191.4	1191.4	1191.4	1191.4	1191.4	0	0
1191.15	295.525	1662.28	1662.28	1662.28	1662.28	1662.28	1662.28	1662.28	0	0
1191.35	295.325	1322.73	1322.73	1322.73	1322.73	1322.73	1322.73	1322.73	0	0
1191.55	295.125	1311.55	1311.55	1311.55	1311.55	1311.55	1311.55	1311.55	0	0
1191.75	294.925	1260.81	1260.81	1260.81	1260.81	1260.81	1260.81	1260.81	0	0
1191.95	294.725	981.518	981.518	981.518	981.518	981.518	981.518	981.518	0	0
1192.15	294.525	1109	1109	1109	1109	1109	1109	1109	0	0
1192.35	294.325	983.7	983.7	983.7	983.7	983.7	983.7	983.7	0	0
1192.55	294.125	796.558	796.558	796.558	796.558	796.558	796.558	796.558	0	0
1192.75	293.925	778.854	778.854	778.854	778.854	778.854	778.854	778.854	0	0
1192.95	293.725	861.36	861.36	861.36	861.36	861.36	861.36	861.36	0	0
1193.15	293.525	762.9	762.9	762.9	762.9	762.9	762.9	762.9	0	0
1193.35	293.325	695.56	695.56	695.56	695.56	695.56	695.56	695.56	0	0
1193.55	293.125	544.512	544.512	544.512	544.512	544.512	544.512	544.512	0	0
1193.75	292.925	661.278	661.278	661.278	661.278	661.278	661.278	661.278	0	0
1193.95	292.725	274.67	274.67	274.67	274.67	274.67	274.67	274.67	0	0
1194.15	292.525	464.228	464.228	464.228	464.228	464.228	464.228	464.228	0	0
1194.35	292.325	322.416	322.416	322.416	322.416	322.417	322.416	322.417	0	0
1194.55	292.125	488.548	488.548	488.548	488.548	488.553	488.548	488.553	0	0
1194.75	291.925	273.698	273.698	273.698	273.698	273.715	273.698	273.715	0	0
1194.95	291.725	174.629	174.629	174.629	174.629	174.685	174.629	174.685	0	0
1195.15	291.525	306.55	306.55	306.55	306.55	306.723	306.55	306.723	0	0
1195.35	291.325	180.647	180.647	180.647	180.648	181.153	180.647	181.154	0	0
1195.55	291.125	313.738	313.738	313.738	313.741	315.114	313.738	315.117	0	0
1195.75	290.925	212.668	291.525	291.525	291.535	295.045	291.525	295.056	1.26327	4.11939
1195.95	290.725	426.272	291.54	291.54	291.577	299.908	291.54	299.945	-1.36816	-6.31633
1196.15	290.525	321.4	291.545	291.545	291.667	310.217	291.545	310.339	-0.137963	-0.553058
1196.35	290.325	335.978	291.552	291.552	291.924	330.276	291.552	330.648	-0.0650264	-0.26652
1196.55	290.125	349.77	291.557	291.557	292.62	366.592	291.557	367.656	0.213846	0.894287
1196.75	289.925	281.14	291.571	291.572	294.408	426.289	291.571	429.127	1.97355	7.39936
1196.95	289.725	609.566	291.6	291.604	298.682	515.54	291.6	522.626	-0.787401	-4.34702
1197.15	289.525	714.708	291.641	291.656	308.153	633.185	291.641	649.712	-0.543633	-3.24979
1197.35	289.325	1043.48	291.727	291.784	327.684	766.215	291.727	802.227	-1.66997	-12.0624
1197.55	289.125	720.442	291.809	292.003	364.843	886.385	291.809	959.613	1.99248	11.9585
1197.75	288.925	1294.23	291.931	292.55	429.981	957.703	291.931	1096.37	-1.22982	-9.8931
1197.95	288.725	993.246	292.055	293.915	534.117	955.481	292.055	1199.4	1.4627	10.3078
1198.15	288.525	1454.57	292.195	297.392	683.757	879.875	292.195	1276.64	-1.04324	-8.89685
1198.35	288.325	1565.36	292.351	305.981	872.637	758.188	292.351	1352.1	-1.20525	-10.6627
1198.55	288.125	1550.96	292.525	325.816	1073.19	625.73	292.524	1439.69	-0.631776	-5.56351
1198.75	287.925	1409.82	292.695	368.88	1237	509.784	292.693	1530.28	0.717391	6.02313
1198.95	287.725	1530.07	292.899	455.298	1311.99	422.93	292.88	1604.48	0.425373	3.72058
1199.15	287.525	1524.7	293.195	616.397	1270.47	365.042	293.076	1665.87	0.808421	7.05854
1199.35	287.325	1871.06	293.962	891.069	1128.34	330.335	293.288	1763.84	-0.55427	-5.36106
1199.55	287.125	2012	296.947	1318.1	933.251	311.261	293.527	1978.98	-0.164593	-1.65086
1199.75	286.925	2464.34	309.141	1910.22	737.477	301.761	293.821	2377.14	-0.392782	-4.36001
1199.95	286.725	2941.18	354.944	2624.84	575.391	297.498	294.186	2970.12	0.119316	1.44692
1200.15	286.525	3955.02	509.572	3336.82	458.761	295.994	294.698	3717.05	-0.846105	-11.8983
1200.35	286.325	4301.12	969.077	3855.76	383.996	295.736	295.264	4618.77	1.08305	15.8826
1200.55	286.125	6061.02	2166.11	4008.31	340.59	296.178	296.017	5923.14	-0.396006	-6.89382
1200.75	285.925	8048.06	4886.11	3736.68	317.988	297.131	297.08	8346.66	0.744269	14.93
1200.95	285.725	13596.8	10196.7	3142.21	307.925	298.804	298.789	13049.3	-1.05002	-27.3779
1201.15	285.525	21720.4	18822	2415	305.268	301.533	301.528	20939.2	-1.18525	-39.0598
1201.35	285.325	31308.8	29881.9	1731.78	307.151	305.726	305.725	31309.4	0.00072873	0.0288327
1201.55	285.125	40896.8	39746.6	1192.84	311.795	311.285	311.285	40628.7	-0.296494	-13.4074
1201.75	284.925	42469.6	43376.1	820.262	317.7	317.53	317.53	43879	1.52924	70.4693
1201.95	284.725	40208	38561.5	589.502	323.594	323.541	323.541	38827.5	-1.53941	-69.0235
1202.15	284.525	29699.6	28196.1	459.164	328.245	328.23	328.23	28327.1	-1.78085	-68.626
1202.35	284.325	16415.7	17349.1	391.083	330.96	330.955	330.955	17409.2	1.73402	49.6784
1202.55	284.125	8696.18	9226.37	358.207	332.422	332.421	332.421	9252.16	1.33315	27.799
1202.75	283.925	4845.48	4372.89	343.508	333.176	333.176	333.176	4383.22	-1.48492	-23.113
1202.95	283.725	2863.92	1950.38	337.445	333.575	333.575	333.575	1954.25	-3.8009	-45.4833
1203.15	283.525	1689.49	905.576	335.162	333.807	333.807	333.807	906.931	-4.25719	-39.1278
1203.35	283.325	1479.54	512.948	334.452	334.009	334.009	334.009	513.391	-5.61649	-48.3073
1203.55	283.125	1179.67	383.922	334.263	334.128	334.128	334.128	384.058	-5.17974	-39.7808
1203.75	282.925	710.018	346.514	334.229	334.19	334.19	334.19	346.553	-3.05009	-18.1733
1203.95	282.725	767.718	336.948	334.259	334.249	334.249	334.249	336.958	-3.47632	-21.538
1204.15	282.525	593.54	334.82	334.3	334.297	334.297	334.297	334.822	-2.37458	-12.9359
1204.35	282.325	511.974	334.425	334.335	334.335	334.335	334.335	334.426	-1.7546	-8.87741
1204.55	282.125	361.158	334.368	334.354	334.354	334.354	334.354	334.368	-0.315218	-1.33951
1204.75	281.925	404.828	334.367	334.365	334.365	334.365	334.365	334.367	-0.783068	-3.52306
1204.95	281.725	288.628	334.371	334.371	334.371	334.371	334.371	334.371	0.602063	2.28716
1205.15	281.525	301.568	334.375	334.375	334.375	334.375	334.375	334.375	0.422439	1.64037
1205.35	281.325	360.186	360.186	360.186	360.186	360.186	360.186	360.186	0	0
1205.55	281.125	309.994	309.994	309.994	309.994	309.994	309.994	309.994	0	0
1205.75	280.925	376.152	376.152	376.152	376.152	376.152	376.152	376.152	0	0
1205.95	280.725	243.616	243.616	243.616	243.616	243.616	243.616	243.616	0	0
1206.15	280.525	302.694	302.694	302.694	302.694	302.694	302.694	302.694	0	0
1206.35	280.325	247.56	247.56	247.56	247.56	247.56	247.56	247.56	0	0
1206.55	280.125	77.1198	77.1198	77.1198	77.1198	77.1198	77.1198	77.1198	0	0
1206.75	279.925	222.798	222.798	222.798	222.798	222.798	222.798	222.798	0	0
1206.95	279.725	259.698	259.698	259.698	259.698	259.698	259.698	259.698	0	0
1207.15	279.525	249.842	249.842	249.842	249.842	249.842	249.842	249.842	0	0
1207.35	279.325	178.253	178.253	178.253	178.253	178.253	178.253	178.253	0	0
1207.55	279.125	167.628	167.628	167.628	167.628	167.628	167.628	167.628	0	0
1207.75	278.925	256.124	256.124	256.124	256.124	256.124	256.124	256.124	0	0
1207.95	278.725	190.806	190.806	190.806	190.806	190.806	190.806	190.806	0	0

File: 250418_191x195-1.2.csv
C1s Scan
	Characteristic Energy eV	1486.68	Acquisition Time s	0.05
KE_C1s Scan	BE_C1s Scan	CPS_C1s Scan	C-C/C-H_1_C1s Scan	C-O_2_C1s Scan	C=O_3_C1s Scan	O-C=O_4_C1s Scan	Background_C1s Scan	Envelope_C1s Scan	Normalised_Residual_C1s Scan	Residual_C1s Scan
1189.1	297.583	3183.58	3183.58	3183.58	3183.58	3183.58	3183.58	3183.58	0	0
1189.3	297.383	2772.9	2772.9	2772.9	2772.9	2772.9	2772.9	2772.9	0	0
1189.5	297.183	2524.62	2524.62	2524.62	2524.62	2524.62	2524.62	2524.62	0	0
1189.7	296.983	2255.44	2255.44	2255.44	2255.44	2255.44	2255.44	2255.44	0	0
1189.9	296.783	2458.48	2458.48	2458.48	2458.48	2458.48	2458.48	2458.48	0	0
1190.1	296.583	2375.4	2375.4	2375.4	2375.4	2375.4	2375.4	2375.4	0	0
1190.3	296.383	2544.18	2544.18	2544.18	2544.18	2544.18	2544.18	2544.18	0	0
1190.5	296.183	2900.94	2900.94	2900.94	2900.94	2900.94	2900.94	2900.94	0	0
1190.7	295.983	2756.44	2756.44	2756.44	2756.44	2756.44	2756.44	2756.44	0	0
1190.9	295.783	2664.24	2664.24	2664.24	2664.24	2664.24	2664.24	2664.24	0	0
1191.1	295.583	2526.1	2526.1	2526.1	2526.1	2526.1	2526.1	2526.1	0	0
1191.3	295.383	2254.94	2254.94	2254.94	2254.94	2254.94	2254.94	2254.94	0	0
1191.5	295.183	2493.48	2493.48	2493.48	2493.48	2493.48	2493.48	2493.48	0	0
1191.7	294.983	2187.88	2187.88	2187.88	2187.88	2187.88	2187.88	2187.88	0	0
1191.9	294.783	2222.44	2222.44	2222.44	2222.44	2222.44	2222.44	2222.44	0	0
1192.1	294.583	2421.36	2421.36	2421.36	2421.36	2421.36	2421.36	2421.36	0	0
1192.3	294.383	2235.84	2235.84	2235.84	2235.84	2235.84	2235.84	2235.84	0	0
1192.5	294.183	2497.74	2497.74	2497.74	2497.74	2497.74	2497.74	2497.74	0	0
1192.7	293.983	2410.74	2410.74	2410.74	2410.74	2410.74	2410.74	2410.74	0	0
1192.9	293.783	2166.96	2166.96	2166.96	2166.96	2166.96	2166.96	2166.96	0	0
1193.1	293.583	2330.24	2330.24	2330.24	2330.24	2330.24	2330.24	2330.24	0	0
1193.3	293.383	2236.84	2236.84	2236.84	2236.84	2236.84	2236.84	2236.84	0	0
1193.5	293.183	2227.78	2227.78	2227.78	2227.78	2227.78	2227.78	2227.78	0	0
1193.7	292.983	2189.5	2189.5	2189.5	2189.5	2189.5	2189.5	2189.5	0	0
1193.9	292.783	2248.78	2248.78	2248.78	2248.78	2248.78	2248.78	2248.78	0	0
1194.1	292.583	2181.48	2181.48	2181.48	2181.48	2181.49	2181.48	2181.49	0	0
1194.3	292.383	1646.86	1646.86	1646.86	1646.86	1646.9	1646.86	1646.9	0	0
1194.5	292.183	1773.06	1773.06	1773.06	1773.06	1773.21	1773.06	1773.21	0	0
1194.7	291.983	2071.54	2071.54	2071.54	2071.54	2071.96	2071.54	2071.96	0	0
1194.9	291.783	1784.5	1784.5	1784.5	1784.5	1785.65	1784.5	1785.65	0	0
1195.1	291.583	2218.5	2218.5	2218.5	2218.5	2221.47	2218.5	2221.47	0	0
1195.3	291.383	1770.38	1770.38	1770.38	1770.38	1777.63	1770.38	1777.63	0	0
1195.5	291.183	1917.42	1917.42	1917.42	1917.42	1934.13	1917.42	1934.14	0	0
1195.7	290.983	2129.92	1932.24	1932.24	1932.25	1968.7	1932.24	1968.71	-0.781097	-8.06068
1195.9	290.783	2074.92	1932.21	1932.21	1932.24	2007.34	1932.21	2007.37	-0.331606	-3.37759
1196.1	290.583	1947.82	1932.19	1932.19	1932.28	2078.28	1932.19	2078.37	0.661441	6.52756
1196.3	290.383	2452.62	1931.99	1932	1932.22	2199.7	1931.99	2199.93	-1.14092	-12.6344
1196.5	290.183	2300.68	1931.83	1931.84	1932.39	2393.06	1931.83	2393.63	0.433337	4.64771
1196.7	289.983	2713.96	1931.5	1931.55	1932.8	2676.16	1931.5	2677.51	-0.156473	-1.82275
1196.9	289.783	2923.08	1931.16	1931.31	1933.99	3052.51	1931.16	3055.5	0.547652	6.62079
1197.1	289.583	3056.92	1930.69	1931.13	1936.52	3496.06	1930.69	3502.33	1.80136	22.2704
1197.3	289.383	3774.16	1930.1	1931.32	1941.43	3941.39	1930.1	3953.93	0.65432	8.98846
1197.5	289.183	4361.32	1929.1	1932.29	1949.84	4290.47	1929.1	4314.39	-0.158899	-2.34647
1197.7	288.983	4653.2	1927.96	1935.83	1963.66	4446.77	1927.96	4490.33	-0.533896	-8.14363
1197.9	288.783	4798.74	1926.85	1945.23	1984.42	4361.51	1926.85	4437.46	-1.16617	-18.0638
1198.1	288.583	4061.1	1925.94	1966.51	2012.55	4061.48	1925.93	4188.68	0.447649	6.37888
1198.3	288.383	3100.86	1925.32	2009.94	2046.08	3633.55	1925.3	3838.99	2.96399	36.9064
1198.5	288.183	3351.26	1924.72	2091.29	2079.65	3179.49	1924.64	3501.25	0.579344	7.49939
1198.7	287.983	3366.3	1924.49	2233.51	2105.92	2776.9	1924.14	3268.39	-0.377334	-4.89539
1198.9	287.783	3085.98	1924.99	2464.01	2117.34	2463.27	1923.68	3198.57	0.453213	5.62968
1199.1	287.583	3444.82	1927.68	2808.37	2110.11	2242.7	1923.14	3319.44	-0.47769	-6.26923
1199.3	287.383	3448.2	1936.96	3276.82	2086.24	2100.24	1922.44	3632.93	0.703444	9.23658
1199.5	287.183	4248.8	1964.57	3845.27	2052.45	2014.73	1921.56	4112.33	-0.46814	-6.82329
1199.7	286.983	4794.06	2038.2	4439.32	2016.45	1966.46	1920.4	4699.23	-0.306257	-4.74158
1199.9	286.783	5442.72	2217.28	4937.5	1984.35	1940.64	1919.14	5322.36	-0.364797	-6.01789
1200.1	286.583	5899.96	2614.53	5206.94	1958.83	1927.09	1917.6	5954.57	0.158989	2.73072
1200.3	286.383	6380.66	3418.57	5164.95	1940.36	1919.92	1915.96	6695.91	0.882483	15.7625
1200.5	286.183	7746.82	4894.57	4824.06	1927.44	1915.43	1913.87	7819.88	0.185607	3.65294
1200.7	285.983	9816.98	7327.64	4284.9	1917.98	1911.45	1910.87	9709.35	-0.242905	-5.38158
1200.9	285.783	13046.6	10865.1	3682.48	1910.37	1907.07	1906.86	12644.4	-0.787247	-20.1069
1201.1	285.583	17356.6	15258.1	3127.86	1902.85	1901.28	1901.22	16486.4	-1.47694	-43.509
1201.3	285.383	20326	19643.3	2682.25	1894.96	1894.26	1894.24	20432	0.166263	5.30038
1201.5	285.183	22192.2	22663.7	2359.81	1886.79	1886.5	1886.49	23137.4	1.41871	47.2584
1201.7	284.983	24052.2	23129.1	2144.8	1878.02	1877.91	1877.91	23396.1	-0.945938	-32.8039
1201.9	284.783	22375.6	20832	2011.52	1869.88	1869.84	1869.84	20973.7	-2.09563	-70.095
1202.1	284.583	17177.8	16720.1	1934.33	1863.41	1863.4	1863.4	16791.1	-0.659845	-19.338
1202.3	284.383	12396.6	12192.2	1892.51	1858.98	1858.98	1858.98	12225.8	-0.343012	-8.53975
1202.5	284.183	8163.06	8312.66	1871.26	1856.29	1856.28	1856.28	8327.64	0.407324	8.22909
1202.7	283.983	5947.04	5515.56	1860.81	1854.49	1854.49	1854.49	5521.88	-1.23278	-21.2579
1202.9	283.783	4451.62	3751.71	1855.93	1853.41	1853.41	1853.41	3754.23	-2.33723	-34.8695
1203.1	283.583	3299.32	2757.36	1853.77	1852.82	1852.82	1852.82	2758.31	-2.10611	-27.0507
1203.3	283.383	2857.18	2249.84	1852.89	1852.55	1852.55	1852.55	2250.18	-2.53923	-30.3499
1203.5	283.183	2307.62	2013.44	1852.44	1852.33	1852.33	1852.33	2013.56	-1.36881	-14.7031
1203.7	282.983	1983.53	1912.63	1852.29	1852.25	1852.25	1852.25	1912.66	-0.35583	-3.54362
1203.9	282.783	2215.1	1872.94	1852.05	1852.03	1852.03	1852.03	1872.95	-1.62555	-17.1073
1204.1	282.583	1883.26	1858.68	1851.99	1851.99	1851.99	1851.99	1858.69	-0.126623	-1.22872
1204.3	282.383	2014.56	1853.92	1851.93	1851.93	1851.93	1851.93	1853.92	-0.800292	-8.032
1204.5	282.183	1881.27	1852.47	1851.93	1851.93	1851.93	1851.93	1852.47	-0.148487	-1.44012
1204.7	281.983	1902.01	1852.05	1851.91	1851.91	1851.91	1851.91	1852.05	-0.256152	-2.49798
1204.9	281.783	2035.34	1851.85	1851.82	1851.82	1851.82	1851.82	1851.85	-0.909434	-9.17433
1205.1	281.583	1855.16	1851.83	1851.82	1851.82	1851.82	1851.82	1851.83	-0.0173186	-0.166797
1205.3	281.383	1765.88	1851.8	1851.8	1851.8	1851.8	1851.8	1851.8	0.457199	4.29606
1205.5	281.183	2097.34	1851.73	1851.73	1851.73	1851.73	1851.73	1851.73	-1.19919	-12.2803
1205.7	280.983	1694.9	1694.9	1694.9	1694.9	1694.9	1694.9	1694.9	0	0
1205.9	280.783	1812.99	1812.99	1812.99	1812.99	1812.99	1812.99	1812.99	0	0
1206.1	280.583	1376.91	1376.91	1376.91	1376.91	1376.91	1376.91	1376.91	0	0
1206.3	280.383	1982.06	1982.06	1982.06	1982.06	1982.06	1982.06	1982.06	0	0
1206.5	280.183	1603.6	1603.6	1603.6	1603.6	1603.6	1603.6	1603.6	0	0
1206.7	279.983	1776.02	1776.02	1776.02	1776.02	1776.02	1776.02	1776.02	0	0
1206.9	279.783	1711.75	1711.75	1711.75	1711.75	1711.75	1711.75	1711.75	0	0
1207.1	279.583	1955.44	1955.44	1955.44	1955.44	1955.44	1955.44	1955.44	0	0
1207.3	279.383	1442.92	1442.92	1442.92	1442.92	1442.92	1442.92	1442.92	0	0
1207.5	279.183	1838.94	1838.94	1838.94	1838.94	1838.94	1838.94	1838.94	0	0
1207.7	278.983	1802.98	1802.98	1802.98	1802.98	1802.98	1802.98	1802.98	0	0
1207.9	278.783	1693.01	1693.01	1693.01	1693.01	1693.01	1693.01	1693.01	0	0
1208.1	278.583	1785.91	1785.91	1785.91	1785.91	1785.91	1785.91	1785.91	0	0

File: 250418_191x195-2.1.csv
C1s Scan
	Characteristic Energy eV	1486.68	Acquisition Time s	0.05
KE_C1s Scan	BE_C1s Scan	CPS_C1s Scan	C-C/C-H_1_C1s Scan	C-O_2_C1s Scan	C=O_3_C1s Scan	O-C=O_4_C1s Scan	Background_C1s Scan	Envelope_C1s Scan	Normalised_Residual_C1s Scan	Residual_C1s Scan
1189.35	297.331	1645.82	1645.82	1645.82	1645.82	1645.82	1645.82	1645.82	0	0
1189.55	297.131	1596.31	1596.31	1596.31	1596.31	1596.31	1596.31	1596.31	0	0
1189.75	296.931	1833.46	1833.46	1833.46	1833.46	1833.46	1833.46	1833.46	0	0
1189.95	296.731	1565.58	1565.58	1565.58	1565.58	1565.58	1565.58	1565.58	0	0
1190.15	296.531	1870.29	1870.29	1870.29	1870.29	1870.29	1870.29	1870.29	0	0
1190.35	296.331	1682.19	1682.19	1682.19	1682.19	1682.19	1682.19	1682.19	0	0
1190.55	296.131	1425.31	1425.31	1425.31	1425.31	1425.31	1425.31	1425.31	0	0
1190.75	295.931	1757.51	1757.51	1757.51	1757.51	1757.51	1757.51	1757.51	0	0
1190.95	295.731	1612.4	1612.4	1612.4	1612.4	1612.4	1612.4	1612.4	0	0
1191.15	295.531	1496.17	1496.17	1496.17	1496.17	1496.17	1496.17	1496.17	0	0
1191.35	295.331	1499.02	1499.02	1499.02	1499.02	1499.02	1499.02	1499.02	0	0
1191.55	295.131	1613.77	1613.77	1613.77	1613.77	1613.77	1613.77	1613.77	0	0
1191.75	294.931	1208.95	1208.95	1208.95	1208.95	1208.95	1208.95	1208.95	0	0
1191.95	294.731	1462.13	1462.13	1462.13	1462.13	1462.13	1462.13	1462.13	0	0
1192.15	294.531	1450.08	1450.08	1450.08	1450.08	1450.08	1450.08	1450.08	0	0
1192.35	294.331	1669.66	1669.66	1669.66	1669.66	1669.66	1669.66	1669.66	0	0
1192.55	294.131	1385.8	1385.8	1385.8	1385.8	1385.8	1385.8	1385.8	0	0
1192.75	293.931	1407.74	1407.74	1407.74	1407.74	1407.74	1407.74	1407.74	0	0
1192.95	293.731	1375.77	1375.77	1375.77	1375.77	1375.77	1375.77	1375.77	0	0
1193.15	293.531	1280.89	1280.89	1280.89	1280.89	1280.89	1280.89	1280.89	0	0
1193.35	293.331	1221.87	1221.87	1221.87	1221.87	1221.87	1221.87	1221.87	0	0
1193.55	293.131	1434.46	1434.46	1434.46	1434.46	1434.46	1434.46	1434.46	0	0
1193.75	292.931	1230.28	1288.78	1288.78	1288.78	1288.78	1288.78	1288.78	0.372962	2.92517
1193.95	292.731	1329.94	1288.73	1288.73	1288.73	1288.73	1288.73	1288.73	-0.25267	-2.06041
1194.15	292.531	1242.41	1288.65	1288.65	1288.65	1288.67	1288.65	1288.67	0.293423	2.31266
1194.35	292.331	985.504	1288.51	1288.51	1288.51	1288.55	1288.51	1288.55	2.15858	15.1524
1194.55	292.131	1179.37	1288.47	1288.47	1288.47	1288.58	1288.47	1288.58	0.71107	5.46038
1194.75	291.931	1176.75	1288.41	1288.41	1288.41	1288.71	1288.41	1288.71	0.729825	5.59816
1194.95	291.731	1283.42	1288.36	1288.36	1288.36	1289.12	1288.36	1289.12	0.0356262	0.28539
1195.15	291.531	1269.33	1288.33	1288.33	1288.33	1290.18	1288.33	1290.18	0.130879	1.04266
1195.35	291.331	1063.71	1288.25	1288.25	1288.25	1292.49	1288.25	1292.49	1.56853	11.439
1195.55	291.131	999.608	1288.11	1288.11	1288.12	1297.32	1288.11	1297.33	2.10564	14.8862
1195.75	290.931	1265.12	1288.02	1288.02	1288.05	1307.06	1288.02	1307.09	0.263847	2.09847
1195.95	290.731	1181.1	1287.97	1287.97	1288.04	1325.32	1287.97	1325.39	0.93882	7.21456
1196.15	290.531	1278.52	1287.9	1287.9	1288.08	1357.29	1287.9	1357.47	0.493752	3.94773
1196.35	290.331	1272.91	1287.88	1287.89	1288.31	1409.85	1287.88	1410.27	0.860934	6.86836
1196.55	290.131	1276.33	1287.88	1287.89	1288.84	1490.29	1287.88	1491.26	1.3452	10.7462
1196.75	289.931	1688.9	1287.67	1287.69	1289.74	1603.97	1287.67	1606.06	-0.450739	-4.14202
1196.95	289.731	1444.54	1287.53	1287.59	1291.74	1751.03	1287.53	1755.3	1.8283	15.5381
1197.15	289.531	1854.45	1287.29	1287.46	1295.42	1920.15	1287.29	1928.45	0.384234	3.69989
1197.35	289.331	2332.4	1286.79	1287.25	1301.7	2087.03	1286.79	2102.39	-1.06494	-11.5004
1197.55	289.131	2292.7	1286.23	1287.41	1312.07	2217.56	1286.23	2244.58	-0.224701	-2.40582
1197.75	288.931	2438.66	1285.55	1288.44	1327.82	2278.24	1285.55	2323.4	-0.521895	-5.76293
1197.95	288.731	2340.36	1284.83	1291.52	1349.84	2250.9	1284.83	2322.6	-0.0820697	-0.887787
1198.15	288.531	2359.48	1284.2	1298.96	1377.81	2143.99	1284.2	2252.37	-0.49309	-5.35573
1198.35	288.331	2209.06	1283.56	1314.48	1409.03	1986.28	1283.56	2142.68	-0.315822	-3.31919
1198.55	288.131	1764.49	1283.21	1344.61	1438.64	1813.72	1283.19	2030.62	1.41667	13.3065
1198.75	287.931	1840.85	1282.91	1398.41	1459.81	1655.1	1282.81	1947.8	0.557361	5.34726
1198.95	287.731	1720.43	1282.87	1488.44	1466.88	1526.86	1282.49	1917.58	1.0628	9.85727
1199.15	287.531	2071.12	1283.37	1628.91	1457.51	1432.85	1282.02	1956.57	-0.56284	-5.7276
1199.35	287.331	2305.16	1286.01	1832.45	1434.34	1369.35	1281.55	2077.5	-1.06028	-11.383
1199.55	287.131	2411.12	1294.61	2101.59	1403.26	1329.27	1280.95	2285.89	-0.570292	-6.26169
1199.75	286.931	2754.4	1318.78	2421.06	1370.73	1305.29	1280.12	2575.51	-0.762177	-8.94446
1199.95	286.731	3045.58	1380.29	2750.72	1341.6	1291.54	1279.1	2926.85	-0.481079	-5.93658
1200.15	286.531	2984.34	1522.72	3027.86	1318.31	1283.8	1277.95	3318.84	1.36915	16.7248
1200.35	286.331	3430.46	1823.73	3183.25	1301.29	1279.37	1276.77	3757.35	1.24799	16.3446
1200.55	286.131	4423.52	2401.76	3172.99	1289.07	1276.09	1274.99	4314.94	-0.365055	-5.42909
1200.75	285.931	5288.54	3403.34	2999.92	1280.4	1273.19	1272.75	5138.6	-0.461031	-7.49692
1200.95	285.731	6726.44	4947.27	2711.18	1273.68	1269.91	1269.74	6392.81	-0.909606	-16.6813
1201.15	285.531	8114.48	7012.84	2374.87	1267.52	1265.66	1265.6	8124.09	0.0238594	0.480589
1201.35	285.331	10527.5	9305.99	2052.7	1261.24	1260.38	1260.35	10099.2	-0.933274	-21.4119
1201.55	285.131	11291.9	11224.1	1782.81	1254.45	1254.07	1254.06	11753.2	0.970818	23.0678
1201.75	284.931	12088.8	12074.2	1578.61	1247.52	1247.36	1247.36	12405.6	0.644403	15.8429
1201.95	284.731	10924	11498	1436.75	1241.27	1241.21	1241.21	11693.6	1.64643	38.4785
1202.15	284.531	10176.8	9737.11	1344.51	1235.49	1235.46	1235.46	9846.18	-0.732881	-16.532
1202.35	284.331	7364.38	7453.6	1288.9	1231.32	1231.31	1231.31	7511.2	0.382568	7.34112
1202.55	284.131	5162.34	5297.29	1257.35	1228.46	1228.46	1228.46	5326.19	0.509931	8.19257
1202.75	283.931	4330.7	3630.63	1240.09	1226.34	1226.34	1226.34	3644.38	-2.33202	-34.316
1202.95	283.731	2936.6	2520.82	1231.31	1225.1	1225.1	1225.1	2527.02	-1.69005	-20.4789
1203.15	283.531	2085.16	1865.03	1227.09	1224.43	1224.43	1224.43	1867.69	-1.06491	-10.8735
1203.35	283.331	1736.72	1515.55	1224.96	1223.88	1223.88	1223.88	1516.63	-1.1809	-11.0043
1203.55	283.131	1760.77	1346.19	1224.04	1223.63	1223.63	1223.63	1346.61	-2.20699	-20.708
1203.75	282.931	1689.15	1271.01	1223.57	1223.42	1223.42	1223.42	1271.17	-2.27413	-20.8994
1203.95	282.731	1518.37	1240.37	1223.34	1223.28	1223.28	1223.28	1240.42	-1.59501	-13.8975
1204.15	282.531	1319.16	1228.91	1223.26	1223.24	1223.24	1223.24	1228.93	-0.555535	-4.51175
1204.35	282.331	1014.99	1224.82	1223.09	1223.08	1223.08	1223.08	1224.83	1.47277	10.4919
1204.55	282.131	1399.88	1223.51	1223.02	1223.02	1223.02	1223.02	1223.51	-1.05402	-8.81819
1204.75	281.931	1043.23	1223.05	1222.92	1222.92	1222.92	1222.92	1223.05	1.24492	8.99116
1204.95	281.731	1357.93	1222.88	1222.85	1222.85	1222.85	1222.85	1222.88	-0.819502	-6.75265
1205.15	281.531	1109.67	1222.82	1222.81	1222.81	1222.81	1222.81	1222.82	0.759538	5.65758
1205.35	281.331	1451.21	1222.68	1222.68	1222.68	1222.68	1222.68	1222.68	-1.34141	-11.4264
1205.55	281.131	1256.02	1222.64	1222.64	1222.64	1222.64	1222.64	1222.64	-0.210609	-1.66902
1205.75	280.931	1149.48	1149.48	1149.48	1149.48	1149.48	1149.48	1149.48	0	0
1205.95	280.731	1091.99	1091.99	1091.99	1091.99	1091.99	1091.99	1091.99	0	0
1206.15	280.531	1361.09	1361.09	1361.09	1361.09	1361.09	1361.09	1361.09	0	0
1206.35	280.331	1041.29	1041.29	1041.29	1041.29	1041.29	1041.29	1041.29	0	0
1206.55	280.131	969.344	969.344	969.344	969.344	969.344	969.344	969.344	0	0
1206.75	279.931	975.808	975.808	975.808	975.808	975.808	975.808	975.808	0	0
1206.95	279.731	1069.69	1069.69	1069.69	1069.69	1069.69	1069.69	1069.69	0	0
1207.15	279.531	1120.06	1120.06	1120.06	1120.06	1120.06	1120.06	1120.06	0	0
1207.35	279.331	1049.12	1049.12	1049.12	1049.12	1049.12	1049.12	1049.12	0	0
1207.55	279.131	1079.3	1079.3	1079.3	1079.3	1079.3	1079.3	1079.3	0	0
1207.75	278.931	854.964	854.964	854.964	854.964	854.964	854.964	854.964	0	0
1207.95	278.731	1135.09	1135.09	1135.09	1135.09	1135.09	1135.09	1135.09	0	0
1208.15	278.531	1205.06	1205.06	1205.06	1205.06	1205.06	1205.06	1205.06	0	0
1208.35	278.331	959.692	959.692	959.692	959.692	959.692	959.692	959.692	0	0