Folder: stickleback_plastic_degradation/XPS (part 5)

File: 250418_191x195-2.2.csv
C1s Scan
	Characteristic Energy eV	1486.68	Acquisition Time s	0.05
KE_C1s Scan	BE_C1s Scan	CPS_C1s Scan	C-C/C-H_1_C1s Scan	C-O_2_C1s Scan	C=O_3_C1s Scan	O-C=O_4_C1s Scan	Background_C1s Scan	Envelope_C1s Scan	Normalised_Residual_C1s Scan	Residual_C1s Scan
1189.18	297.501	1725.19	1725.19	1725.19	1725.19	1725.19	1725.19	1725.19	0	0
1189.38	297.301	1943.27	1943.27	1943.27	1943.27	1943.27	1943.27	1943.27	0	0
1189.58	297.101	1862.95	1862.95	1862.95	1862.95	1862.95	1862.95	1862.95	0	0
1189.78	296.901	1482.18	1482.18	1482.18	1482.18	1482.18	1482.18	1482.18	0	0
1189.98	296.701	1493.3	1493.3	1493.3	1493.3	1493.3	1493.3	1493.3	0	0
1190.18	296.501	1642.56	1642.56	1642.56	1642.56	1642.56	1642.56	1642.56	0	0
1190.38	296.301	1677.15	1677.15	1677.15	1677.15	1677.15	1677.15	1677.15	0	0
1190.58	296.101	1476.28	1476.28	1476.28	1476.28	1476.28	1476.28	1476.28	0	0
1190.78	295.901	1631.38	1631.38	1631.38	1631.38	1631.38	1631.38	1631.38	0	0
1190.98	295.701	1545.07	1545.07	1545.07	1545.07	1545.07	1545.07	1545.07	0	0
1191.18	295.501	1589.55	1589.55	1589.55	1589.55	1589.55	1589.55	1589.55	0	0
1191.38	295.301	1545.24	1545.24	1545.24	1545.24	1545.24	1545.24	1545.24	0	0
1191.58	295.101	1502.23	1502.23	1502.23	1502.23	1502.23	1502.23	1502.23	0	0
1191.78	294.901	1301.43	1301.43	1301.43	1301.43	1301.43	1301.43	1301.43	0	0
1191.98	294.701	1855.18	1855.18	1855.18	1855.18	1855.18	1855.18	1855.18	0	0
1192.18	294.501	1428.67	1428.67	1428.67	1428.67	1428.67	1428.67	1428.67	0	0
1192.38	294.301	1475.9	1475.9	1475.9	1475.9	1475.9	1475.9	1475.9	0	0
1192.58	294.101	1303.25	1303.25	1303.25	1303.25	1303.25	1303.25	1303.25	0	0
1192.78	293.901	1549.48	1549.48	1549.48	1549.48	1549.48	1549.48	1549.48	0	0
1192.98	293.701	1430.07	1430.07	1430.07	1430.07	1430.07	1430.07	1430.07	0	0
1193.18	293.501	1131.69	1131.69	1131.69	1131.69	1131.69	1131.69	1131.69	0	0
1193.38	293.301	1212.98	1212.98	1212.98	1212.98	1212.98	1212.98	1212.98	0	0
1193.58	293.101	1520.01	1520.01	1520.01	1520.01	1520.01	1520.01	1520.01	0	0
1193.78	292.901	1555.2	1555.2	1555.2	1555.2	1555.2	1555.2	1555.2	0	0
1193.98	292.701	1491.95	1491.95	1491.95	1491.95	1491.95	1491.95	1491.95	0	0
1194.18	292.501	1261.53	1261.53	1261.53	1261.53	1261.53	1261.53	1261.53	0	0
1194.38	292.301	1141.33	1189.01	1189.01	1189.01	1189.02	1189.01	1189.02	0.315632	2.38436
1194.58	292.101	1409.37	1189.01	1189.01	1189.01	1189.01	1189.01	1189.01	-1.31249	-11.0178
1194.78	291.901	1413.5	1188.99	1188.99	1188.99	1189.01	1188.99	1189.01	-1.33519	-11.2247
1194.98	291.701	1147.95	1188.98	1188.98	1188.98	1189.05	1188.98	1189.05	0.271222	2.05481
1195.18	291.501	1633.63	1188.96	1188.96	1188.96	1189.2	1188.96	1189.2	-2.45872	-22.2214
1195.38	291.301	957.55	1188.95	1188.95	1188.95	1189.74	1188.95	1189.74	1.67781	11.6094
1195.58	291.101	1234.79	1188.94	1188.94	1188.94	1191.29	1188.94	1191.29	-0.276797	-2.17492
1195.78	290.901	1099.12	1188.93	1188.93	1188.93	1195.42	1188.93	1195.42	0.649481	4.81476
1195.98	290.701	1190.36	1188.93	1188.93	1188.94	1205.5	1188.93	1205.51	0.0981587	0.757276
1196.18	290.501	1013.31	1188.92	1188.92	1188.94	1228.2	1188.92	1228.22	1.50968	10.7459
1196.38	290.301	1295.71	1188.91	1188.91	1189	1275.01	1188.91	1275.09	-0.128073	-1.03085
1196.58	290.101	1200.83	1188.91	1188.91	1189.18	1362.95	1188.91	1363.22	1.04786	8.11952
1196.78	289.901	1402.6	1188.89	1188.89	1189.68	1512.28	1188.89	1513.08	0.659605	5.52378
1196.98	289.701	2044	1188.83	1188.85	1190.99	1738.15	1188.83	1740.32	-1.50199	-15.1842
1197.18	289.501	1921.54	1188.79	1188.84	1194.19	2034.94	1188.79	2040.4	0.606281	5.9427
1197.38	289.301	2143.24	1188.72	1188.89	1201.27	2358.41	1188.72	2371.14	1.10075	11.3949
1197.58	289.101	2309.72	1188.62	1189.2	1215.54	2622.38	1188.62	2649.88	1.58268	17.0082
1197.78	288.901	2765.92	1188.51	1190.27	1241.79	2732.26	1188.51	2787.31	0.0909323	1.06936
1197.98	288.701	2755.8	1188.39	1193.38	1285.31	2642.91	1188.39	2744.82	-0.0467861	-0.549194
1198.18	288.501	2544.44	1188.28	1201.35	1349.14	2391.42	1188.28	2565.36	0.0927227	1.04584
1198.38	288.301	2125.24	1188.21	1219.87	1429.64	2069.76	1188.2	2342.88	1.05563	10.8818
1198.58	288.101	2119.66	1188.18	1259.22	1512.28	1766.79	1188.13	2162.08	0.206031	2.12105
1198.78	287.901	1890.99	1188.28	1335.53	1573.05	1532.13	1188.07	2064.78	0.893627	8.68932
1198.98	287.701	2297.82	1188.81	1469.45	1589.06	1374.98	1188	2058.3	-1.11729	-11.976
1199.18	287.501	1923.74	1190.74	1679.91	1553.57	1281.33	1187.94	2141.72	1.11129	10.899
1199.38	287.301	2780.72	1196.83	1969.77	1480.87	1230.88	1187.85	2314.78	-1.97576	-23.2969
1199.58	287.101	2731.32	1214.38	2306.77	1396.41	1206.08	1187.76	2560.35	-0.731504	-8.54847
1199.78	286.901	2637.76	1260.61	2613.32	1321.19	1194.87	1187.66	2827.02	0.823987	9.46287
1199.98	286.701	3545.52	1372.31	2786.67	1265.1	1190.14	1187.52	3051.68	-1.85451	-24.6919
1200.18	286.501	3114.22	1619.75	2757.55	1228.63	1188.28	1187.39	3232.03	0.472074	5.89073
1200.38	286.301	3747.18	2120.32	2538.36	1207.38	1187.51	1187.23	3491.89	-0.932524	-12.7643
1200.58	286.101	4135.02	3039.95	2213.71	1196.12	1187.1	1187.02	4075.83	-0.205835	-2.95967
1200.78	285.901	4928.72	4558.04	1883.29	1190.57	1186.79	1186.77	5258.39	1.05002	16.4835
1200.98	285.701	6988.88	6769.23	1612.95	1187.87	1186.4	1186.39	7197.26	0.557373	10.4192
1201.18	285.501	9722.84	9522.45	1423.86	1186.34	1185.81	1185.81	9761.02	0.0865791	1.90895
1201.38	285.301	12357.2	12281.8	1307.06	1185.23	1185.06	1185.06	12404	0.0940425	2.3376
1201.58	285.101	14489.9	14197.7	1241.78	1184.21	1184.16	1184.16	14255.3	-0.435673	-11.7268
1201.78	284.901	14507.2	14514.6	1208.34	1183.21	1183.2	1183.2	14539.8	0.0605581	1.63098
1201.98	284.701	13358.7	13099.8	1192.47	1182.32	1182.32	1182.32	13110	-0.481156	-12.4352
1202.18	284.501	10750.3	10535.2	1185.41	1181.62	1181.62	1181.62	10539	-0.455762	-10.5666
1202.38	284.301	7636.96	7696.96	1182.43	1181.12	1181.12	1181.12	7698.27	0.156868	3.06534
1202.58	284.101	5603.78	5257.57	1181.18	1180.76	1180.76	1180.76	5257.99	-1.0329	-17.2895
1202.78	283.901	3592.8	3495.12	1180.69	1180.57	1180.57	1180.57	3495.24	-0.36393	-4.87775
1202.98	283.701	2577.12	2381.88	1180.49	1180.46	1180.46	1180.46	2381.91	-0.859823	-9.76026
1203.18	283.501	1927.63	1753.43	1180.4	1180.39	1180.39	1180.39	1753.44	-0.887157	-8.70959
1203.38	283.301	1250	1432.3	1180.38	1180.37	1180.37	1180.37	1432.3	1.15299	9.11516
1203.58	283.101	1325.06	1282.59	1180.34	1180.34	1180.34	1180.34	1282.59	-0.260916	-2.12375
1203.78	282.901	1632	1218.66	1180.32	1180.32	1180.32	1180.32	1218.66	-2.28785	-20.6667
1203.98	282.701	1002.82	1193.6	1180.31	1180.31	1180.31	1180.31	1193.6	1.34716	9.53926
1204.18	282.501	1442.52	1184.57	1180.3	1180.3	1180.3	1180.3	1184.57	-1.51863	-12.8973
1204.38	282.301	1255.37	1181.56	1180.29	1180.29	1180.29	1180.29	1181.56	-0.465843	-3.69072
1204.58	282.101	1067.71	1180.63	1180.28	1180.28	1180.28	1180.28	1180.63	0.772738	5.64604
1204.78	281.901	1205.28	1180.36	1180.27	1180.27	1180.27	1180.27	1180.36	-0.160519	-1.24611
1204.98	281.701	1266.12	1180.28	1180.26	1180.26	1180.26	1180.26	1180.28	-0.539429	-4.29196
1205.18	281.501	1129.42	1180.26	1180.25	1180.25	1180.25	1180.25	1180.26	0.33826	2.54193
1205.38	281.301	940.286	1180.24	1180.24	1180.24	1180.24	1180.24	1180.24	1.74978	11.9977
1205.58	281.101	1249.1	1249.1	1249.1	1249.1	1249.1	1249.1	1249.1	0	0
1205.78	280.901	1318.45	1318.45	1318.45	1318.45	1318.45	1318.45	1318.45	0	0
1205.98	280.701	1059.02	1059.02	1059.02	1059.02	1059.02	1059.02	1059.02	0	0
1206.18	280.501	1150.46	1150.46	1150.46	1150.46	1150.46	1150.46	1150.46	0	0
1206.38	280.301	706.406	706.406	706.406	706.406	706.406	706.406	706.406	0	0
1206.58	280.101	1241.37	1241.37	1241.37	1241.37	1241.37	1241.37	1241.37	0	0
1206.78	279.901	1196.01	1196.01	1196.01	1196.01	1196.01	1196.01	1196.01	0	0
1206.98	279.701	1144.55	1144.55	1144.55	1144.55	1144.55	1144.55	1144.55	0	0
1207.18	279.501	1218.04	1218.04	1218.04	1218.04	1218.04	1218.04	1218.04	0	0
1207.38	279.301	1072.86	1072.86	1072.86	1072.86	1072.86	1072.86	1072.86	0	0
1207.58	279.101	968.446	968.446	968.446	968.446	968.446	968.446	968.446	0	0
1207.78	278.901	1262.73	1262.73	1262.73	1262.73	1262.73	1262.73	1262.73	0	0
1207.98	278.701	841.176	841.176	841.176	841.176	841.176	841.176	841.176	0	0
1208.18	278.501	820.596	820.596	820.596	820.596	820.596	820.596	820.596	0	0

File: 250418_191x195-2.3.csv
C1s Scan
	Characteristic Energy eV	1486.68	Acquisition Time s	0.05
KE_C1s Scan	BE_C1s Scan	CPS_C1s Scan	C-C/C-H_1_C1s Scan	C-O_2_C1s Scan	C=O_3_C1s Scan	O-C=O_4_C1s Scan	Background_C1s Scan	Envelope_C1s Scan	Normalised_Residual_C1s Scan	Residual_C1s Scan
1189.41	297.27	1851.23	1851.23	1851.23	1851.23	1851.23	1851.23	1851.23	0	0
1189.61	297.07	1731.31	1731.31	1731.31	1731.31	1731.31	1731.31	1731.31	0	0
1189.81	296.87	1782.22	1782.22	1782.22	1782.22	1782.22	1782.22	1782.22	0	0
1190.01	296.67	1816.23	1816.23	1816.23	1816.23	1816.23	1816.23	1816.23	0	0
1190.21	296.47	1743.99	1743.99	1743.99	1743.99	1743.99	1743.99	1743.99	0	0
1190.41	296.27	1599.62	1599.62	1599.62	1599.62	1599.62	1599.62	1599.62	0	0
1190.61	296.07	1665.06	1665.06	1665.06	1665.06	1665.06	1665.06	1665.06	0	0
1190.81	295.87	1429.36	1429.36	1429.36	1429.36	1429.36	1429.36	1429.36	0	0
1191.01	295.67	2040.92	2040.92	2040.92	2040.92	2040.92	2040.92	2040.92	0	0
1191.21	295.47	1500.28	1500.28	1500.28	1500.28	1500.28	1500.28	1500.28	0	0
1191.41	295.27	1466.22	1466.22	1466.22	1466.22	1466.22	1466.22	1466.22	0	0
1191.61	295.07	1643.06	1643.06	1643.06	1643.06	1643.06	1643.06	1643.06	0	0
1191.81	294.87	1627.74	1627.74	1627.74	1627.74	1627.74	1627.74	1627.74	0	0
1192.01	294.67	1889.95	1889.95	1889.95	1889.95	1889.95	1889.95	1889.95	0	0
1192.21	294.47	1509.58	1509.58	1509.58	1509.58	1509.58	1509.58	1509.58	0	0
1192.41	294.27	1410.06	1410.06	1410.06	1410.06	1410.06	1410.06	1410.06	0	0
1192.61	294.07	1435.52	1435.52	1435.52	1435.52	1435.52	1435.52	1435.52	0	0
1192.81	293.87	1802.74	1802.74	1802.74	1802.74	1802.74	1802.74	1802.74	0	0
1193.01	293.67	1698.86	1698.86	1698.86	1698.86	1698.86	1698.86	1698.86	0	0
1193.21	293.47	1304.91	1304.91	1304.91	1304.91	1304.91	1304.91	1304.91	0	0
1193.41	293.27	1518.41	1518.41	1518.41	1518.41	1518.41	1518.41	1518.41	0	0
1193.61	293.07	1580.93	1580.93	1580.93	1580.93	1580.93	1580.93	1580.93	0	0
1193.81	292.87	1403.43	1403.43	1403.43	1403.43	1403.43	1403.43	1403.43	0	0
1194.01	292.67	1616.02	1616.02	1616.02	1616.02	1616.03	1616.02	1616.03	0	0
1194.21	292.47	1227.67	1266.01	1266.01	1266.01	1266.04	1266.01	1266.04	0.244873	1.91852
1194.41	292.27	1222.78	1266.06	1266.06	1266.06	1266.14	1266.06	1266.14	0.277249	2.16785
1194.61	292.07	1340.96	1266.1	1266.1	1266.1	1266.32	1266.1	1266.32	-0.455802	-3.73224
1194.81	291.87	1301.92	1266.18	1266.18	1266.18	1266.75	1266.18	1266.75	-0.217976	-1.75868
1195.01	291.67	1258.56	1266.19	1266.19	1266.19	1267.6	1266.19	1267.6	0.0570196	0.45232
1195.21	291.47	1394.26	1266.22	1266.22	1266.23	1269.56	1266.22	1269.57	-0.746732	-6.2348
1195.41	291.27	1144.12	1266.27	1266.27	1266.28	1273.76	1266.27	1273.77	0.857052	6.48229
1195.61	291.07	1429.88	1266.32	1266.32	1266.33	1282.26	1266.32	1282.27	-0.872836	-7.38018
1195.81	290.87	1358.79	1266.39	1266.39	1266.43	1298.68	1266.39	1298.72	-0.364425	-3.00379
1196.01	290.67	1301.22	1266.47	1266.47	1266.57	1328.44	1266.47	1328.54	0.169367	1.36612
1196.21	290.47	1332.43	1266.52	1266.52	1266.77	1379.13	1266.52	1379.39	0.287641	2.34778
1196.41	290.27	1391.45	1266.59	1266.6	1267.19	1460.13	1266.59	1460.72	0.415247	3.46359
1196.61	290.07	1606.31	1266.79	1266.8	1268.1	1580.59	1266.79	1581.91	-0.136116	-1.21986
1196.81	289.87	1684.28	1266.96	1266.99	1269.74	1745.71	1266.96	1748.52	0.350015	3.21203
1197.01	289.67	1810.4	1267.25	1267.36	1272.83	1950.27	1267.25	1955.95	0.764917	7.27758
1197.21	289.47	2042.72	1267.59	1267.89	1278.18	2173.7	1267.59	2184.6	0.701924	7.09381
1197.41	289.27	2644.56	1268.13	1268.94	1287.19	2378.96	1268.13	2398.82	-1.06853	-12.2871
1197.61	289.07	2536.18	1268.82	1270.85	1301.23	2519.87	1268.82	2554.32	0.0805489	0.907057
1197.81	288.87	3035.54	1269.52	1274.42	1321.56	2557.71	1269.52	2614.64	-1.70822	-21.0449
1198.01	288.67	2287.4	1270.15	1281.33	1348.61	2482.04	1270.15	2571.69	1.32915	14.2145
1198.21	288.47	2116.98	1270.67	1294.9	1381.2	2314.9	1270.67	2449.67	1.61684	16.6345
1198.41	288.27	2046.26	1271.21	1321.01	1415.85	2099.27	1271.2	2293.74	1.22335	12.3742
1198.61	288.07	2170.6	1271.64	1368.71	1446.36	1879.63	1271.61	2151.5	-0.0916605	-0.954899
1198.81	287.87	2074.9	1272.15	1451.78	1465.72	1688.15	1272.03	2061.73	-0.0646559	-0.658555
1199.01	287.67	2067.74	1272.93	1587.3	1468.67	1539.44	1272.43	2051.04	-0.0821104	-0.834893
1199.21	287.47	2439.46	1274.62	1793.45	1454.59	1434.15	1272.88	2138.17	-1.36403	-15.0645
1199.41	287.27	2385.58	1279.03	2083.27	1427.55	1365.3	1273.34	2335.13	-0.23095	-2.52232
1199.61	287.07	2561.38	1291.21	2454.97	1394.56	1323.6	1274	2642.33	0.357638	4.0473
1199.81	286.87	3353.02	1322.9	2879.93	1362.2	1300.2	1274.82	3040.75	-1.20588	-15.6137
1200.01	286.67	3595.66	1400.11	3295.54	1335.02	1288.26	1275.92	3491.16	-0.389679	-5.22495
1200.21	286.47	3504.14	1573.51	3615.12	1314.52	1282.71	1277.02	3954.79	1.7023	22.5327
1200.41	286.27	4433.7	1932.32	3757.19	1300.82	1280.9	1278.41	4435.99	0.00770073	0.114657
1200.61	286.07	5078.88	2608.43	3681.33	1292.63	1281.02	1279.98	5023.46	-0.173888	-2.77102
1200.81	285.87	6520.24	3757.73	3409.81	1289.13	1282.78	1282.37	5892.34	-1.73879	-31.3952
1201.01	285.67	7779.34	5490.78	3016.47	1288.69	1285.41	1285.26	7225.57	-1.40393	-27.6887
1201.21	285.47	9111.3	7747.51	2590.98	1290.43	1288.83	1288.78	9051.42	-0.140284	-2.99422
1201.41	285.27	11612.4	10161.6	2204.63	1294.3	1293.57	1293.55	11073.5	-1.11825	-26.9454
1201.61	285.07	13021.4	12056.8	1895.24	1299.32	1299	1298.99	12653.4	-0.72113	-18.4004
1201.81	284.87	12261.1	12726.8	1671.19	1304.51	1304.38	1304.38	13093.7	1.68144	41.6323
1202.01	284.67	11382.1	11889.6	1522.88	1309.79	1309.74	1309.74	12102.8	1.51052	36.0348
1202.21	284.47	10018.3	9898.25	1431.36	1314.24	1314.22	1314.22	10015.4	-0.00636352	-0.142423
1202.41	284.27	7562.54	7478.93	1378.63	1317.67	1317.66	1317.66	7539.9	-0.0582102	-1.13193
1202.61	284.07	5507.7	5278.83	1350.05	1319.98	1319.98	1319.98	5308.91	-0.598958	-9.93954
1202.81	283.87	4173.74	3624.24	1335.58	1321.51	1321.51	1321.51	3638.31	-1.8532	-26.7714
1203.01	283.67	2776.94	2545.32	1328.63	1322.36	1322.36	1322.36	2551.59	-0.956228	-11.2676
1203.21	283.47	2220.1	1919.23	1325.57	1322.92	1322.92	1322.92	1921.88	-1.41525	-14.9109
1203.41	283.27	1900.08	1591.24	1324.42	1323.35	1323.35	1323.35	1592.31	-1.5788	-15.3886
1203.61	283.07	1446.29	1434.55	1323.85	1323.45	1323.45	1323.45	1434.96	-0.0666082	-0.566421
1203.81	282.87	1283.37	1366.06	1323.63	1323.48	1323.48	1323.48	1366.21	0.51709	4.14215
1204.01	282.67	1313.85	1338.6	1323.57	1323.52	1323.52	1323.52	1338.65	0.153001	1.24009
1204.21	282.47	1593.83	1328.55	1323.62	1323.61	1323.61	1323.61	1328.56	-1.48574	-13.2632
1204.41	282.27	1410.94	1325.16	1323.67	1323.67	1323.67	1323.67	1325.17	-0.510632	-4.28892
1204.61	282.07	1381.19	1324.14	1323.72	1323.72	1323.72	1323.72	1324.14	-0.343243	-2.85242
1204.81	281.87	1453.41	1323.89	1323.78	1323.78	1323.78	1323.78	1323.89	-0.759659	-6.47586
1205.01	281.67	1265.92	1323.84	1323.82	1323.82	1323.82	1323.82	1323.84	0.363994	2.8959
1205.21	281.47	1320.79	1323.85	1323.84	1323.84	1323.84	1323.84	1323.85	0.0188214	0.152952
1205.41	281.27	1147.17	1147.17	1147.17	1147.17	1147.17	1147.17	1147.17	0	0
1205.61	281.07	1060.43	1060.43	1060.43	1060.43	1060.43	1060.43	1060.43	0	0
1205.81	280.87	1303.24	1303.24	1303.24	1303.24	1303.24	1303.24	1303.24	0	0
1206.01	280.67	988.746	988.746	988.746	988.746	988.746	988.746	988.746	0	0
1206.21	280.47	1463.04	1463.04	1463.04	1463.04	1463.04	1463.04	1463.04	0	0
1206.41	280.27	1176.76	1176.76	1176.76	1176.76	1176.76	1176.76	1176.76	0	0
1206.61	280.07	1110.37	1110.37	1110.37	1110.37	1110.37	1110.37	1110.37	0	0
1206.81	279.87	1138.72	1138.72	1138.72	1138.72	1138.72	1138.72	1138.72	0	0
1207.01	279.67	1218.3	1218.3	1218.3	1218.3	1218.3	1218.3	1218.3	0	0
1207.21	279.47	1342.31	1342.31	1342.31	1342.31	1342.31	1342.31	1342.31	0	0
1207.41	279.27	942.316	942.316	942.316	942.316	942.316	942.316	942.316	0	0
1207.61	279.07	1417.46	1417.46	1417.46	1417.46	1417.46	1417.46	1417.46	0	0
1207.81	278.87	950.22	950.22	950.22	950.22	950.22	950.22	950.22	0	0
1208.01	278.67	1303.66	1303.66	1303.66	1303.66	1303.66	1303.66	1303.66	0	0
1208.21	278.47	1053.12	1053.12	1053.12	1053.12	1053.12	1053.12	1053.12	0	0
1208.41	278.27	999.796	999.796	999.796	999.796	999.796	999.796	999.796	0	0

File: 250418_191x195-3.1.csv
C1s Scan
	Characteristic Energy eV	1486.68	Acquisition Time s	0.05
KE_C1s Scan	BE_C1s Scan	CPS_C1s Scan	C-C/C-H_1_C1s Scan	C-O_2_C1s Scan	C=O_3_C1s Scan	O-C=O_4_C1s Scan	Background_C1s Scan	Envelope_C1s Scan	Normalised_Residual_C1s Scan	Residual_C1s Scan
1189.44	297.242	1969.89	1969.89	1969.89	1969.89	1969.89	1969.89	1969.89	0	0
1189.64	297.042	2201.48	2201.48	2201.48	2201.48	2201.48	2201.48	2201.48	0	0
1189.84	296.842	2058.7	2058.7	2058.7	2058.7	2058.7	2058.7	2058.7	0	0
1190.04	296.642	1947.46	1947.46	1947.46	1947.46	1947.46	1947.46	1947.46	0	0
1190.24	296.442	1988.82	1988.82	1988.82	1988.82	1988.82	1988.82	1988.82	0	0
1190.44	296.242	1964.29	1964.29	1964.29	1964.29	1964.29	1964.29	1964.29	0	0
1190.64	296.042	2155.58	2155.58	2155.58	2155.58	2155.58	2155.58	2155.58	0	0
1190.84	295.842	2040.28	2040.28	2040.28	2040.28	2040.28	2040.28	2040.28	0	0
1191.04	295.642	1943.21	1943.21	1943.21	1943.21	1943.21	1943.21	1943.21	0	0
1191.24	295.442	1735.34	1735.34	1735.34	1735.34	1735.34	1735.34	1735.34	0	0
1191.44	295.242	1786.23	1786.23	1786.23	1786.23	1786.23	1786.23	1786.23	0	0
1191.64	295.042	1710.58	1710.58	1710.58	1710.58	1710.58	1710.58	1710.58	0	0
1191.84	294.842	2006.44	2006.44	2006.44	2006.44	2006.44	2006.44	2006.44	0	0
1192.04	294.642	1885.16	1885.16	1885.16	1885.16	1885.16	1885.16	1885.16	0	0
1192.24	294.442	1957.79	1957.79	1957.79	1957.79	1957.79	1957.79	1957.79	0	0
1192.44	294.242	1750.61	1750.61	1750.61	1750.61	1750.61	1750.61	1750.61	0	0
1192.64	294.042	1698.53	1698.53	1698.53	1698.53	1698.53	1698.53	1698.53	0	0
1192.84	293.842	2177.38	2177.38	2177.38	2177.38	2177.38	2177.38	2177.38	0	0
1193.04	293.642	1707.16	1707.16	1707.16	1707.16	1707.16	1707.16	1707.16	0	0
1193.24	293.442	1334.86	1334.86	1334.86	1334.86	1334.86	1334.86	1334.86	0	0
1193.44	293.242	1856.1	1856.1	1856.1	1856.1	1856.1	1856.1	1856.1	0	0
1193.64	293.042	1601.34	1601.34	1601.34	1601.34	1601.34	1601.34	1601.34	0	0
1193.84	292.842	1364.61	1364.61	1364.61	1364.61	1364.61	1364.61	1364.61	0	0
1194.04	292.642	1628.31	1628.31	1628.31	1628.31	1628.32	1628.31	1628.32	0	0
1194.24	292.442	1625.72	1625.72	1625.72	1625.72	1625.75	1625.72	1625.75	0	0
1194.44	292.242	1573.71	1573.71	1573.71	1573.71	1573.78	1573.71	1573.79	0	0
1194.64	292.042	1446	1446	1446	1446.01	1446.21	1446	1446.22	0	0
1194.84	291.842	1489.9	1489.9	1489.9	1489.92	1490.46	1489.9	1490.48	0	0
1195.04	291.642	1456.79	1456.79	1456.79	1456.84	1458.19	1456.79	1458.24	0	0
1195.24	291.442	1415.03	1414.32	1414.32	1414.46	1417.64	1414.32	1417.79	0.0163644	0.137648
1195.44	291.242	1250.23	1414.28	1414.28	1414.65	1421.75	1414.28	1422.11	1.08699	8.59418
1195.64	291.042	1325.82	1414.25	1414.25	1415.16	1430.17	1414.25	1431.08	0.646393	5.26289
1195.84	290.842	1420.81	1414.18	1414.18	1416.31	1446.44	1414.18	1448.57	0.164692	1.38812
1196.04	290.642	1282.04	1414.15	1414.15	1418.88	1476.15	1414.15	1480.88	1.24177	9.9421
1196.24	290.442	1686.65	1414.07	1414.07	1424.03	1526.87	1414.07	1536.83	-0.815732	-7.49109
1196.44	290.242	1763.46	1413.97	1413.98	1433.86	1607.89	1413.97	1627.78	-0.722485	-6.78417
1196.64	290.042	1876.32	1413.82	1413.84	1451.5	1728.11	1413.82	1765.8	-0.57052	-5.52598
1196.84	289.842	1739.53	1413.68	1413.73	1481.32	1892.24	1413.68	1959.92	1.18157	11.0195
1197.04	289.642	1856.81	1413.44	1413.56	1528.09	2094.93	1413.44	2209.72	1.83128	17.6451
1197.24	289.442	2623.26	1412.97	1413.33	1596.03	2314.52	1412.97	2497.94	-0.547145	-6.26625
1197.44	289.242	2528.34	1412.5	1413.46	1686.73	2513.31	1412.5	2788.5	1.15694	13.008
1197.64	289.042	3103.54	1411.68	1414.11	1795.22	2645.1	1411.68	3031.07	-0.290895	-3.62368
1197.84	288.842	3017.68	1410.95	1416.78	1908.62	2674.11	1410.95	3177.62	0.651034	7.99696
1198.04	288.642	3414.92	1410.15	1423.43	2005.19	2591.3	1410.15	3199.62	-0.823847	-10.7652
1198.24	288.442	2892.28	1409.49	1438.24	2061.46	2420	1409.48	3100.73	0.866702	10.4226
1198.44	288.242	3144.48	1408.68	1467.74	2061.23	2204.28	1408.67	2915.92	-0.911403	-11.428
1198.64	288.042	2482.32	1408.14	1523.09	2004.71	1988.23	1408.1	2699.87	0.97637	10.8775
1198.84	287.842	2597.48	1407.83	1619.61	1907.42	1801.83	1407.64	2513.78	-0.367234	-4.18508
1199.04	287.642	2719.14	1407.88	1776.66	1792.86	1658.08	1407.14	2414.05	-1.30825	-15.2543
1199.24	287.442	2359.66	1409.4	2014.66	1682.97	1557.14	1406.79	2443.8	0.387335	4.20723
1199.44	287.242	2988.86	1414.76	2347.52	1590.82	1491.39	1406.24	2625.76	-1.48512	-18.1551
1199.64	287.042	3081.74	1431.29	2769.38	1521.35	1451.24	1405.62	2956.41	-0.50484	-6.26666
1199.84	286.842	3527.82	1476.3	3243.25	1473.06	1427.89	1404.73	3406.3	-0.457487	-6.07599
1200.04	286.642	3726.72	1588.11	3695.46	1441.81	1414.84	1403.7	3929.11	0.741341	10.1197
1200.24	286.442	4135.82	1841.63	4027.86	1422.7	1407.63	1402.55	4492.16	1.23901	17.8172
1200.44	286.242	5551.24	2365.78	4151.25	1410.95	1403.05	1400.85	5128.49	-1.26875	-21.1376
1200.64	286.042	6211.92	3352.06	4028.62	1403.87	1399.97	1399.07	5987.32	-0.637204	-11.2299
1200.84	285.842	7332.4	5023.39	3695.98	1398.69	1396.89	1396.53	7325.36	-0.018395	-0.352214
1201.04	285.642	9303	7536.55	3241	1394.31	1393.52	1393.39	9385.22	0.190615	4.11105
1201.24	285.442	12317.1	10790.6	2761.41	1389.36	1389.03	1388.99	12163.4	-0.309695	-7.68554
1201.44	285.242	15758.8	14240	2331.58	1383.34	1383.21	1383.2	15188.6	-1.01563	-28.5088
1201.64	285.042	18206.3	16902.6	1989.67	1376.27	1376.22	1376.22	17516.1	-1.14378	-34.5094
1201.84	284.842	17749.9	17775.7	1742.33	1369.02	1369.01	1369.01	18149	0.669897	19.9568
1202.04	284.642	15872.2	16486.6	1576.77	1362.41	1362.41	1362.41	16701	1.47098	41.4392
1202.24	284.442	13431.4	13573.6	1473.01	1356.63	1356.63	1356.63	13690	0.498954	12.9302
1202.44	284.242	9496.14	10087.1	1412.32	1352.49	1352.49	1352.49	10146.9	1.49331	32.5393
1202.64	284.042	7986.08	6942.85	1378.65	1349.51	1349.51	1349.51	6971.99	-2.53743	-50.7044
1202.84	283.842	4782.66	4590.4	1361.22	1347.72	1347.72	1347.72	4603.9	-0.578002	-8.93819
1203.04	283.642	3586.66	3062.63	1352.66	1346.73	1346.73	1346.73	3068.57	-1.93441	-25.9047
1203.24	283.442	3075.68	2179.48	1348.42	1345.94	1345.94	1345.94	2181.96	-3.60345	-44.6862
1203.44	283.242	2423.96	1718.95	1346.51	1345.53	1345.53	1345.53	1719.93	-3.19751	-35.2014
1203.64	283.042	1604.29	1499.8	1345.7	1345.33	1345.33	1345.33	1500.17	-0.581284	-5.20612
1203.84	282.842	1703.81	1404.23	1345.31	1345.18	1345.18	1345.18	1404.36	-1.62217	-14.9725
1204.04	282.642	1356.98	1365.93	1345.1	1345.05	1345.05	1345.05	1365.97	0.0546251	0.449949
1204.24	282.442	1586.34	1351.77	1344.96	1344.95	1344.95	1344.95	1351.79	-1.31683	-11.7277
1204.44	282.242	1892.3	1346.87	1344.82	1344.81	1344.81	1344.81	1346.88	-2.80366	-27.2713
1204.64	282.042	1347.77	1345.37	1344.8	1344.8	1344.8	1344.8	1345.37	-0.0145921	-0.119787
1204.84	281.842	1611.34	1344.83	1344.68	1344.68	1344.68	1344.68	1344.83	-1.48461	-13.3257
1205.04	281.642	1142.85	1344.67	1344.63	1344.63	1344.63	1344.63	1344.67	1.33494	10.0912
1205.24	281.442	1430.51	1344.6	1344.59	1344.59	1344.59	1344.59	1344.6	-0.507904	-4.29548
1205.44	281.242	1129.54	1344.52	1344.52	1344.52	1344.52	1344.52	1344.52	1.43033	10.7491
1205.64	281.042	1413.97	1344.48	1344.48	1344.48	1344.48	1344.48	1344.48	-0.413236	-3.47459
1205.84	280.842	1533.96	1533.96	1533.96	1533.96	1533.96	1533.96	1533.96	0	0
1206.04	280.642	1312.97	1312.97	1312.97	1312.97	1312.97	1312.97	1312.97	0	0
1206.24	280.442	1403.96	1403.96	1403.96	1403.96	1403.96	1403.96	1403.96	0	0
1206.44	280.242	1239.1	1239.1	1239.1	1239.1	1239.1	1239.1	1239.1	0	0
1206.64	280.042	1196.27	1196.27	1196.27	1196.27	1196.27	1196.27	1196.27	0	0
1206.84	279.842	1190.09	1190.09	1190.09	1190.09	1190.09	1190.09	1190.09	0	0
1207.04	279.642	1452.83	1452.83	1452.83	1452.83	1452.83	1452.83	1452.83	0	0
1207.24	279.442	1279.52	1279.52	1279.52	1279.52	1279.52	1279.52	1279.52	0	0
1207.44	279.242	930.19	930.19	930.19	930.19	930.19	930.19	930.19	0	0
1207.64	279.042	1215.33	1215.33	1215.33	1215.33	1215.33	1215.33	1215.33	0	0
1207.84	278.842	1100.09	1100.09	1100.09	1100.09	1100.09	1100.09	1100.09	0	0
1208.04	278.642	1208.19	1208.19	1208.19	1208.19	1208.19	1208.19	1208.19	0	0
1208.24	278.442	1481.09	1481.09	1481.09	1481.09	1481.09	1481.09	1481.09	0	0
1208.44	278.242	1375.66	1375.66	1375.66	1375.66	1375.66	1375.66	1375.66	0	0