Folder: stickleback_plastic_degradation/XPS

Note: README.md
# stickleback_plastic_degradation
This repository contains the complete experimental datasets from the study “Cold-water stickleback gut isolates reveal polypropylene surface oxidation and coculture inhibition.”
Bacterial isolates were obtained from the guts of wild threespine stickleback (Gasterosteus aculeatus) collected across multiple bodies of water in Southcentral Alaska. Each isolate was characterized for its potential role in plastic degradation through assays of enzymatic activity, biofilm formation, and plastic surface modification.

The repository is organized into five folders, each corresponding to a major experimental dataset: Lipase, Esterase, Biofilm, FTIR, and XPS.

Stickleback strain identifications have been deposited in GenBank under Accession Numbers PX470357 and PX519477 - PX519659.

File: 241019_191x195-1.1.csv
C1s Scan
	Characteristic Energy eV	1486.68	Acquisition Time s	0.05
KE_C1s Scan	BE_C1s Scan	CPS_C1s Scan	C-C/C-H_1_C1s Scan	C-O_2_C1s Scan	C=O_3_C1s Scan	O-C=O_4_C1s Scan	Background_C1s Scan	Envelope_C1s Scan	Normalised_Residual_C1s Scan	Residual_C1s Scan
1188.9	297.785	869.396	869.396	869.396	869.396	869.396	869.396	869.396	0	0
1189.1	297.585	879.788	879.788	879.788	879.788	879.788	879.788	879.788	0	0
1189.3	297.385	736.132	736.132	736.132	736.132	736.132	736.132	736.132	0	0
1189.5	297.185	744.148	744.148	744.148	744.148	744.148	744.148	744.148	0	0
1189.7	296.985	802.03	802.03	802.03	802.03	802.03	802.03	802.03	0	0
1189.9	296.785	606.916	606.916	606.916	606.916	606.916	606.916	606.916	0	0
1190.1	296.585	752.948	752.948	752.948	752.948	752.948	752.948	752.948	0	0
1190.3	296.385	630.088	630.088	630.088	630.088	630.088	630.088	630.088	0	0
1190.5	296.185	544.41	544.41	544.41	544.41	544.41	544.41	544.41	0	0
1190.7	295.985	615.57	615.57	615.57	615.57	615.57	615.57	615.57	0	0
1190.9	295.785	632.278	632.278	632.278	632.278	632.278	632.278	632.278	0	0
1191.1	295.585	540.58	540.58	540.58	540.58	540.58	540.58	540.58	0	0
1191.3	295.385	391.904	391.904	391.904	391.904	391.904	391.904	391.904	0	0
1191.5	295.185	455.078	455.078	455.078	455.078	455.078	455.078	455.078	0	0
1191.7	294.985	456.972	456.972	456.972	456.972	456.972	456.972	456.972	0	0
1191.9	294.785	458.882	458.882	458.882	458.882	458.882	458.882	458.882	0	0
1192.1	294.585	299.726	299.726	299.726	299.726	299.726	299.726	299.726	0	0
1192.3	294.385	220.028	220.028	220.028	220.028	220.028	220.028	220.028	0	0
1192.5	294.185	285.63	285.63	285.63	285.63	285.63	285.63	285.63	0	0
1192.7	293.985	318.636	318.636	318.636	318.636	318.636	318.636	318.636	0	0
1192.9	293.785	311.662	311.662	311.662	311.662	311.662	311.662	311.662	0	0
1193.1	293.585	290.878	290.878	290.878	290.878	290.878	290.878	290.878	0	0
1193.3	293.385	311.544	311.544	311.544	311.544	311.544	311.544	311.544	0	0
1193.5	293.185	241.84	241.84	241.84	241.84	241.84	241.84	241.84	0	0
1193.7	292.985	259.004	259.004	259.004	259.004	259.004	259.004	259.004	0	0
1193.9	292.785	155.885	155.885	155.885	155.885	155.886	155.885	155.886	0	0
1194.1	292.585	204.098	204.098	204.098	204.098	204.101	204.098	204.101	0	0
1194.3	292.385	119.883	119.883	119.883	119.883	119.892	119.883	119.892	0	0
1194.5	292.185	209.322	209.322	209.322	209.323	209.346	209.322	209.347	0	0
1194.7	291.985	192.991	192.991	192.991	192.993	193.056	192.991	193.058	0	0
1194.9	291.785	55.418	55.418	55.418	55.4248	55.5835	55.418	55.5903	0	0
1195.1	291.585	197.273	197.273	197.273	197.294	197.671	197.273	197.691	0	0
1195.3	291.385	125.925	125.925	125.925	125.985	126.828	125.925	126.889	0	0
1195.5	291.185	114.381	114.381	114.381	114.546	116.326	114.381	116.491	0	0
1195.7	290.985	141.972	137.64	137.64	138.07	141.599	137.64	142.03	0.00107974	0.00287677
1195.9	290.785	123.849	137.648	137.649	138.708	145.269	137.648	146.328	0.451671	1.12396
1196.1	290.585	94.1156	137.666	137.666	140.135	151.51	137.666	153.98	1.37981	2.9932
1196.3	290.385	112.238	137.672	137.673	143.123	161.375	137.672	166.828	1.15219	2.72948
1196.5	290.185	218.382	137.692	137.697	149.078	175.793	137.692	187.184	-0.472061	-1.55988
1196.7	289.985	206.742	137.71	137.727	160.195	194.952	137.71	217.454	0.166591	0.535613
1196.9	289.785	244.352	137.741	137.793	179.68	217.656	137.741	259.648	0.218799	0.764784
1197.1	289.585	285.398	137.8	137.954	211.555	240.771	137.8	314.679	0.387569	1.46406
1197.3	289.385	351.966	137.857	138.283	259.82	259.462	137.857	381.852	0.356203	1.49428
1197.5	289.185	553.032	137.98	139.099	326.898	268.861	137.98	458.897	-0.895082	-4.70677
1197.7	288.985	602.858	138.124	140.904	410.812	266.134	138.124	541.602	-0.55786	-3.06279
1197.9	288.785	503.796	138.272	144.814	502.708	252.154	138.272	623.133	1.18886	5.96684
1198.1	288.585	433.528	138.375	152.945	586.169	230.931	138.375	693.295	2.78972	12.9884
1198.3	288.385	873.36	138.6	169.312	641.204	207.767	138.599	741.085	-1.00084	-6.61374
1198.5	288.185	967.132	138.827	200.096	651.92	186.69	138.824	761.061	-1.4817	-10.3035
1198.7	287.985	871.094	139.056	254.532	615.067	169.909	139.038	761.449	-0.830695	-5.48225
1198.9	287.785	738.824	139.333	344.563	541.761	157.891	139.239	765.829	0.222156	1.35025
1199.1	287.585	600.01	139.854	482.828	451.407	150.007	139.41	805.865	1.87917	10.2927
1199.3	287.385	899.682	141.537	678.085	362.87	145.32	139.643	908.882	0.0685883	0.460023
1199.5	287.185	1263.2	147.324	927.425	288.38	142.819	139.947	1086.11	-1.11415	-8.85449
1199.7	286.985	1176.33	166.193	1207.93	232.561	141.677	140.303	1327.45	0.985242	7.55601
1199.9	286.785	1641.72	222.773	1473.19	194.628	141.413	140.791	1609.64	-0.177052	-1.60411
1200.1	286.585	2080.52	377.051	1661.84	170.925	141.602	141.336	1927.42	-0.750564	-7.65524
1200.3	286.385	2328.98	753.869	1721.03	157.325	142.078	141.97	2348.39	0.0899256	0.970401
1200.5	286.185	3097.74	1573.28	1632.98	150.428	142.933	142.892	3070.94	-0.107654	-1.33979
1200.7	285.985	4449.32	3150.24	1424.75	147.628	144.144	144.129	4434.38	-0.0500964	-0.747203
1200.9	285.785	6570.06	5777.86	1153.72	147.535	146.003	145.997	6787.13	0.598817	10.8533
1201.1	285.585	10250.9	9442.69	880.095	149.662	149.024	149.023	10174.4	-0.16899	-3.82584
1201.3	285.385	13782	13462.3	645.547	153.446	153.195	153.194	13954.9	0.329252	8.64312
1201.5	285.185	16000.9	16410	467.916	158.348	158.254	158.254	16719.8	1.27066	35.9408
1201.7	284.985	18278.1	16883.2	346.608	163.907	163.874	163.874	17066	-2.00471	-60.6041
1201.9	284.785	14921.7	14628.4	270.264	168.761	168.75	168.75	14730	-0.350969	-9.58657
1202.1	284.585	11039.5	10783	225.849	172.642	172.638	172.638	10836.2	-0.432652	-10.1648
1202.3	284.385	6886.02	6893.78	201.333	174.979	174.977	174.977	6920.13	0.0919266	1.70573
1202.5	284.185	4050	3905.57	188.704	176.356	176.356	176.356	3917.91	-0.464102	-6.60429
1202.7	283.985	2074.04	2018.71	182.59	177.11	177.11	177.11	2024.19	-0.244754	-2.49243
1202.9	283.785	1255.91	992.179	179.791	177.489	177.489	177.489	994.481	-1.64951	-13.0713
1203.1	283.585	865.488	501.867	178.674	177.758	177.758	177.758	502.783	-2.75682	-18.1353
1203.3	283.385	466.766	294.64	178.236	177.891	177.891	177.891	294.985	-1.77791	-8.58905
1203.5	283.185	536.592	216.029	178.12	177.997	177.997	177.997	216.151	-3.09322	-16.022
1203.7	282.985	441.698	189.251	178.117	178.075	178.075	178.075	189.292	-2.68548	-12.6203
1203.9	282.785	249.102	181.094	178.13	178.117	178.117	178.117	181.107	-0.963326	-3.39975
1204.1	282.585	384.536	178.893	178.178	178.174	178.174	178.174	178.896	-2.34489	-10.282
1204.3	282.385	143.016	178.347	178.192	178.191	178.191	178.191	178.348	0.660631	1.76659
1204.5	282.185	143.745	178.235	178.205	178.204	178.204	178.204	178.235	0.64326	1.72452
1204.7	281.985	198.682	178.23	178.225	178.225	178.225	178.225	178.23	-0.324438	-1.02258
1204.9	281.785	119.099	178.236	178.235	178.235	178.235	178.235	178.236	1.21167	2.95682
1205.1	281.585	154.641	178.24	178.24	178.24	178.24	178.24	178.24	0.424336	1.17993
1205.3	281.385	168.35	178.252	178.252	178.252	178.252	178.252	178.252	0.170653	0.495113
1205.5	281.185	230.878	230.878	230.878	230.878	230.878	230.878	230.878	0	0
1205.7	280.985	156.118	156.118	156.118	156.118	156.118	156.118	156.118	0	0
1205.9	280.785	175.343	175.343	175.343	175.343	175.343	175.343	175.343	0	0
1206.1	280.585	27.7088	27.7088	27.7088	27.7088	27.7088	27.7088	27.7088	0	0
1206.3	280.385	49.2656	49.2656	49.2656	49.2656	49.2656	49.2656	49.2656	0	0
1206.5	280.185	62.7452	62.7452	62.7452	62.7452	62.7452	62.7452	62.7452	0	0
1206.7	279.985	70.7336	70.7336	70.7336	70.7336	70.7336	70.7336	70.7336	0	0
1206.9	279.785	140.57	140.57	140.57	140.57	140.57	140.57	140.57	0	0
1207.1	279.585	27.0436	27.0436	27.0436	27.0436	27.0436	27.0436	27.0436	0	0
1207.3	279.385	99.2244	99.2244	99.2244	99.2244	99.2244	99.2244	99.2244	0	0
1207.5	279.185	75.8418	75.8418	75.8418	75.8418	75.8418	75.8418	75.8418	0	0
1207.7	278.985	98.2102	98.2102	98.2102	98.2102	98.2102	98.2102	98.2102	0	0
1207.9	278.785	45.3274	45.3274	45.3274	45.3274	45.3274	45.3274	45.3274	0	0

File: 241019_191x195-2.1.csv
C1s Scan
	Characteristic Energy eV	1486.68	Acquisition Time s	0.05
KE_C1s Scan	BE_C1s Scan	CPS_C1s Scan	C-C/C-H_1_C1s Scan	C-O_2_C1s Scan	C=O_3_C1s Scan	O-C=O_4_C1s Scan	Background_C1s Scan	Envelope_C1s Scan	Normalised_Residual_C1s Scan	Residual_C1s Scan
1188.97	297.71	1998.71	1998.71	1998.71	1998.71	1998.71	1998.71	1998.71	0	0
1189.17	297.51	2196.02	2196.02	2196.02	2196.02	2196.02	2196.02	2196.02	0	0
1189.37	297.31	1946.88	1946.88	1946.88	1946.88	1946.88	1946.88	1946.88	0	0
1189.57	297.11	1557.3	1557.3	1557.3	1557.3	1557.3	1557.3	1557.3	0	0
1189.77	296.91	1975.15	1975.15	1975.15	1975.15	1975.15	1975.15	1975.15	0	0
1189.97	296.71	1956.39	1956.39	1956.39	1956.39	1956.39	1956.39	1956.39	0	0
1190.17	296.51	1774.12	1774.12	1774.12	1774.12	1774.12	1774.12	1774.12	0	0
1190.37	296.31	1769.97	1769.97	1769.97	1769.97	1769.97	1769.97	1769.97	0	0
1190.57	296.11	1351.65	1351.65	1351.65	1351.65	1351.65	1351.65	1351.65	0	0
1190.77	295.91	1525.17	1525.17	1525.17	1525.17	1525.17	1525.17	1525.17	0	0
1190.97	295.71	1699.82	1699.82	1699.82	1699.82	1699.82	1699.82	1699.82	0	0
1191.17	295.51	1585.74	1585.74	1585.74	1585.74	1585.74	1585.74	1585.74	0	0
1191.37	295.31	1295.4	1295.4	1295.4	1295.4	1295.4	1295.4	1295.4	0	0
1191.57	295.11	1299.87	1299.87	1299.87	1299.87	1299.87	1299.87	1299.87	0	0
1191.77	294.91	1546.48	1546.48	1546.48	1546.48	1546.48	1546.48	1546.48	0	0
1191.97	294.71	1091.35	1091.35	1091.35	1091.35	1091.35	1091.35	1091.35	0	0
1192.17	294.51	1321.29	1321.29	1321.29	1321.29	1321.29	1321.29	1321.29	0	0
1192.37	294.31	968.618	968.618	968.618	968.618	968.618	968.618	968.618	0	0
1192.57	294.11	861.074	861.074	861.074	861.074	861.074	861.074	861.074	0	0
1192.77	293.91	848.11	848.11	848.11	848.11	848.11	848.11	848.11	0	0
1192.97	293.71	707.178	707.178	707.178	707.178	707.178	707.178	707.178	0	0
1193.17	293.51	779.398	779.398	779.398	779.398	779.398	779.398	779.398	0	0
1193.37	293.31	569.256	569.256	569.256	569.256	569.256	569.256	569.256	0	0
1193.57	293.11	588.17	588.17	588.17	588.17	588.17	588.17	588.17	0	0
1193.77	292.91	483.246	483.246	483.246	483.246	483.247	483.246	483.247	0	0
1193.97	292.71	594.158	594.158	594.158	594.158	594.161	594.158	594.161	0	0
1194.17	292.51	526.856	526.856	526.856	526.856	526.866	526.856	526.866	0	0
1194.37	292.31	439.46	439.46	439.46	439.46	439.489	439.46	439.489	0	0
1194.57	292.11	501.362	501.362	501.362	501.363	501.445	501.362	501.445	0	0
1194.77	291.91	380.732	380.732	380.732	380.734	380.954	380.732	380.956	0	0
1194.97	291.71	427.324	427.324	427.324	427.33	427.889	427.324	427.895	0	0
1195.17	291.51	388.934	388.934	388.934	388.953	390.299	388.934	390.317	0	0
1195.37	291.31	436.826	436.826	436.826	436.881	439.954	436.826	440.009	0	0
1195.57	291.11	366.406	366.406	366.406	366.56	373.24	366.406	373.394	0	0
1195.77	290.91	543.552	440.16	440.16	440.568	454.32	440.16	454.729	-0.851907	-4.44117
1195.97	290.71	411.504	440.16	440.161	441.189	467.975	440.16	469.005	0.63383	2.87504
1196.17	290.51	298.988	440.162	440.163	442.621	491.934	440.162	494.394	2.52695	9.77032
1196.37	290.31	578.2	440.163	440.17	445.739	531.372	440.163	536.954	-0.383557	-2.06231
1196.57	290.11	596.458	440.166	440.186	452.21	592.146	440.166	604.211	0.0709821	0.387636
1196.77	289.91	850.758	440.171	440.235	464.854	678.604	440.171	703.352	-1.13005	-7.37031
1196.97	289.71	808.99	440.179	440.368	488.129	790.816	440.179	838.956	0.235582	1.4983
1197.17	289.51	1154.56	440.19	440.726	528.43	921.04	440.19	1009.82	-0.952532	-7.23724
1197.37	289.31	1055.68	440.2	441.64	593.842	1051.39	440.2	1206.47	1.03777	7.5397
1197.57	289.11	1231.28	440.213	443.88	693.045	1155.51	440.213	1412	1.15163	9.036
1197.77	288.91	1542.71	440.235	449.09	831.697	1206.92	440.235	1607.24	0.367336	3.2262
1197.97	288.71	2035.88	440.261	460.547	1007.81	1191.23	440.261	1779.06	-1.27274	-12.841
1198.17	288.51	2089.2	440.29	484.522	1206.62	1113.03	440.29	1923.59	-0.810171	-8.28041
1198.37	288.31	1948.71	440.319	531.927	1398.06	993.561	440.318	2042.91	0.477144	4.70987
1198.57	288.11	1920.57	440.351	620.211	1541.09	860.398	440.349	2141.01	1.12475	11.0219
1198.77	287.91	2031.96	440.398	774.966	1598.07	736.855	440.379	2229.15	0.978172	9.85957
1198.97	287.71	2250.1	440.523	1029.48	1552.96	636.091	440.412	2337.82	0.413486	4.38578
1199.17	287.51	2489.1	441.043	1420.77	1418.86	561.784	440.448	2521.12	0.143492	1.60079
1199.37	287.31	2927.08	443.353	1977.37	1231.27	511.42	440.492	2841.93	-0.351921	-4.25743
1199.57	287.11	3796.46	452.874	2698.75	1031.42	479.749	440.547	3341.15	-1.65234	-22.7654
1199.77	286.91	4433.88	488.207	3534.38	851.602	461.174	440.611	4013.53	-1.41158	-21.0175
1199.97	286.71	4539.94	605.426	4368.66	708.316	450.913	440.687	4811.25	0.900382	13.5655
1200.17	286.51	5218.42	951.953	5033.09	604.649	445.599	440.776	5712.96	1.53079	24.727
1200.37	286.31	6724.18	1861.69	5357.07	535.541	443.044	440.886	6874.7	0.410438	7.52579
1200.57	286.11	8712.86	3970.73	5250.32	492.737	441.945	441.03	8832.64	0.28694	5.98903
1200.77	285.91	13337.9	8245.42	4744.28	468.058	441.608	441.237	12575.7	-1.4758	-38.1115
1200.97	285.71	19007.1	15679.6	3976.31	454.74	441.689	441.547	19227.7	0.357819	11.0308
1201.17	285.51	29278.2	26388.6	3123.01	448.183	442.079	442.027	29075.8	-0.264497	-10.1199
1201.37	285.31	39655.6	38301.4	2333.13	445.426	442.72	442.702	40194.5	0.605172	26.9474
1201.57	285.11	47540	46869.7	1690.21	444.686	443.549	443.543	48117.6	0.592306	28.8776
1201.77	284.91	48310.6	47627.5	1216.91	444.894	444.439	444.437	48400.5	0.0914138	4.49281
1201.97	284.71	41786	40137.5	896.515	445.404	445.231	445.23	40588.9	-1.30946	-59.8541
1202.17	284.51	28404.4	28426.8	694.952	445.859	445.797	445.797	28676	0.360395	13.5818
1202.37	284.31	17188.7	17294.3	576.718	446.173	446.151	446.151	17424.9	0.4029	11.8115
1202.57	284.11	8895.64	9270.49	511.244	446.35	446.343	446.343	9335.4	1.04258	21.9878
1202.77	283.91	4662.56	4520.94	477.035	446.437	446.435	446.435	4551.54	-0.363554	-5.55093
1202.97	283.71	3062.46	2119.34	460.174	446.49	446.489	446.489	2133.02	-3.75552	-46.4719
1203.17	283.51	2017.5	1060.13	452.329	446.526	446.525	446.525	1065.94	-4.73715	-47.5782
1203.37	283.31	1470.88	648.102	448.89	446.546	446.546	446.546	650.447	-4.78342	-41.0216
1203.57	283.11	1171.32	505.904	447.46	446.56	446.56	446.56	506.804	-4.34162	-33.2257
1203.77	282.91	941.282	462.234	446.898	446.57	446.57	446.57	462.561	-3.48905	-23.936
1203.97	282.71	719.544	450.282	446.69	446.577	446.577	446.577	450.395	-2.24362	-13.4575
1204.17	282.51	678.358	447.365	446.617	446.58	446.58	446.58	447.402	-1.98283	-11.5478
1204.37	282.31	617.714	446.731	446.594	446.582	446.582	446.582	446.742	-1.53821	-8.54858
1204.57	282.11	482.312	446.608	446.586	446.583	446.583	446.583	446.611	-0.363493	-1.78503
1204.77	281.91	650.516	446.589	446.586	446.585	446.585	446.585	446.59	-1.78784	-10.1963
1204.97	281.71	329.474	446.587	446.587	446.587	446.587	446.587	446.587	1.44272	5.85567
1205.17	281.51	540.576	446.588	446.588	446.588	446.588	446.588	446.588	-0.903917	-4.69939
1205.37	281.31	355.666	355.666	355.666	355.666	355.666	355.666	355.666	0	0
1205.57	281.11	476.298	476.298	476.298	476.298	476.298	476.298	476.298	0	0
1205.77	280.91	294.428	294.428	294.428	294.428	294.428	294.428	294.428	0	0
1205.97	280.71	396.102	396.102	396.102	396.102	396.102	396.102	396.102	0	0
1206.17	280.51	283.978	283.978	283.978	283.978	283.978	283.978	283.978	0	0
1206.37	280.31	306.722	306.722	306.722	306.722	306.722	306.722	306.722	0	0
1206.57	280.11	268.358	268.358	268.358	268.358	268.358	268.358	268.358	0	0
1206.77	279.91	177.442	177.442	177.442	177.442	177.442	177.442	177.442	0	0
1206.97	279.71	188.985	188.985	188.985	188.985	188.985	188.985	188.985	0	0
1207.17	279.51	256.906	256.906	256.906	256.906	256.906	256.906	256.906	0	0
1207.37	279.31	319.026	319.026	319.026	319.026	319.026	319.026	319.026	0	0
1207.57	279.11	166.019	166.019	166.019	166.019	166.019	166.019	166.019	0	0
1207.77	278.91	169.205	169.205	169.205	169.205	169.205	169.205	169.205	0	0
1207.97	278.71	209.118	209.118	209.118	209.118	209.118	209.118	209.118	0	0

File: 241019_191x195-2.2.csv
C1s Scan
	Characteristic Energy eV	1486.68	Acquisition Time s	0.05
KE_C1s Scan	BE_C1s Scan	CPS_C1s Scan	C-C/C-H_1_C1s Scan	C-O_2_C1s Scan	C=O_3_C1s Scan	O-C=O_4_C1s Scan	Background_C1s Scan	Envelope_C1s Scan	Normalised_Residual_C1s Scan	Residual_C1s Scan
1188.96	297.722	2126.08	2126.08	2126.08	2126.08	2126.08	2126.08	2126.08	0	0
1189.16	297.522	2067.92	2067.92	2067.92	2067.92	2067.92	2067.92	2067.92	0	0
1189.36	297.322	2016.48	2016.48	2016.48	2016.48	2016.48	2016.48	2016.48	0	0
1189.56	297.122	1943.33	1943.33	1943.33	1943.33	1943.33	1943.33	1943.33	0	0
1189.76	296.922	2183.62	2183.62	2183.62	2183.62	2183.62	2183.62	2183.62	0	0
1189.96	296.722	1843.98	1843.98	1843.98	1843.98	1843.98	1843.98	1843.98	0	0
1190.16	296.522	1940.93	1940.93	1940.93	1940.93	1940.93	1940.93	1940.93	0	0
1190.36	296.322	2221.34	2221.34	2221.34	2221.34	2221.34	2221.34	2221.34	0	0
1190.56	296.122	1470.91	1470.91	1470.91	1470.91	1470.91	1470.91	1470.91	0	0
1190.76	295.922	1902.42	1902.42	1902.42	1902.42	1902.42	1902.42	1902.42	0	0
1190.96	295.722	1364.05	1364.05	1364.05	1364.05	1364.05	1364.05	1364.05	0	0
1191.16	295.522	1610.69	1610.69	1610.69	1610.69	1610.69	1610.69	1610.69	0	0
1191.36	295.322	1335.58	1335.58	1335.58	1335.58	1335.58	1335.58	1335.58	0	0
1191.56	295.122	1420.73	1420.73	1420.73	1420.73	1420.73	1420.73	1420.73	0	0
1191.76	294.922	1171.24	1171.24	1171.24	1171.24	1171.24	1171.24	1171.24	0	0
1191.96	294.722	966.682	966.682	966.682	966.682	966.682	966.682	966.682	0	0
1192.16	294.522	1109.24	1109.24	1109.24	1109.24	1109.24	1109.24	1109.24	0	0
1192.36	294.322	928.234	928.234	928.234	928.234	928.234	928.234	928.234	0	0
1192.56	294.122	975.698	975.698	975.698	975.698	975.698	975.698	975.698	0	0
1192.76	293.922	970.136	970.136	970.136	970.136	970.136	970.136	970.136	0	0
1192.96	293.722	845.914	845.914	845.914	845.914	845.914	845.914	845.914	0	0
1193.16	293.522	914.076	914.076	914.076	914.076	914.076	914.076	914.076	0	0
1193.36	293.322	719.152	719.152	719.152	719.152	719.152	719.152	719.152	0	0
1193.56	293.122	751.812	751.812	751.812	751.812	751.812	751.812	751.812	0	0
1193.76	292.922	707.45	707.45	707.45	707.45	707.45	707.45	707.45	0	0
1193.96	292.722	515.59	515.59	515.59	515.59	515.591	515.59	515.591	0	0
1194.16	292.522	592.654	592.654	592.654	592.654	592.659	592.654	592.659	0	0
1194.36	292.322	400.444	400.444	400.444	400.444	400.461	400.444	400.461	0	0
1194.56	292.122	539.492	539.492	539.492	539.492	539.549	539.492	539.549	0	0
1194.76	291.922	573.454	573.454	573.454	573.454	573.633	573.454	573.634	0	0
1194.96	291.722	477.862	477.862	477.862	477.862	478.387	477.862	478.387	0	0
1195.16	291.522	546.068	546.068	546.068	546.069	547.513	546.068	547.514	0	0
1195.36	291.322	405.47	405.47	405.47	405.475	409.165	405.47	409.17	0	0
1195.56	291.122	378.406	378.406	378.406	378.427	387.282	378.406	387.303	0	0
1195.76	290.922	489.652	411.661	411.661	411.734	431.491	411.661	431.564	-0.586989	-2.90441
1195.96	290.722	307.098	411.666	411.666	411.903	453.169	411.666	453.406	1.86688	7.31542
1196.16	290.522	507.732	411.671	411.671	412.402	492.344	411.671	493.075	-0.14545	-0.732851
1196.36	290.322	535.708	411.676	411.676	413.761	557.708	411.676	559.793	0.232683	1.20424
1196.56	290.122	666.89	411.684	411.685	417.291	655.719	411.684	661.327	-0.0481722	-0.278169
1196.76	289.922	722.764	411.704	411.707	425.702	786.873	411.704	800.873	0.649666	3.90547
1196.96	289.722	1283.7	411.737	411.748	444.574	937.083	411.737	969.93	-1.95821	-15.6883
1197.16	289.522	1169.33	411.767	411.807	483.38	1075.65	411.767	1147.3	-0.144045	-1.10142
1197.36	289.322	1303.02	411.81	411.951	558.014	1162.74	411.81	1309.08	0.0375812	0.30334
1197.56	289.122	1304.45	411.861	412.336	688.941	1166.81	411.861	1444.36	0.866221	6.99564
1197.76	288.922	1448.38	411.913	413.396	900.025	1087.42	411.913	1577.02	0.755794	6.43176
1197.96	288.722	1386.19	411.966	416.315	1204.54	951.961	411.966	1748.88	2.17826	18.1345
1198.16	288.522	2263.76	412.055	423.911	1592.24	801.369	412.055	1993.41	-1.27054	-13.5173
1198.36	288.322	2439.8	412.153	442.487	2008	667.784	412.153	2293.96	-0.660202	-7.29187
1198.56	288.122	2607.98	412.258	484.545	2352.96	566.252	412.257	2579.24	-0.125847	-1.43708
1198.76	287.922	2309.14	412.369	573.707	2519.45	498.234	412.362	2766.68	2.12906	22.877
1198.96	287.722	2856.76	412.52	747.823	2444.73	456.852	412.472	2824.51	-0.134929	-1.6126
1199.16	287.522	2360.1	412.865	1062.89	2158.84	433.997	412.58	2830.86	2.16679	23.5378
1199.36	287.322	2724.56	414.22	1582.61	1757.4	422.33	412.715	2938.42	0.916152	10.693
1199.56	287.122	3410.12	419.91	2360.08	1349.75	416.9	412.853	3308.08	-0.390744	-5.10225
1199.76	286.922	4504.8	442.448	3388.71	1009.49	414.628	413.043	4016.14	-1.628	-24.433
1199.96	286.722	5135.38	522.609	4555.31	762.564	413.849	413.266	5014.53	-0.377086	-6.04243
1200.16	286.522	5735.72	775.863	5614.8	603.167	413.722	413.523	6166.98	1.27331	21.5631
1200.36	286.322	7028.52	1480.54	6252.81	509.425	413.896	413.831	7415.18	1.03128	19.3328
1200.56	286.122	9485.58	3200.93	6245.6	459.233	414.257	414.238	9077.31	-0.937354	-20.4136
1200.76	285.922	12032.7	6851.86	5593.71	434.516	414.79	414.785	12050.5	0.0362736	0.88973
1200.96	285.722	18126.4	13476.8	4529.57	423.675	415.574	415.572	17598.9	-0.875988	-26.3717
1201.16	285.522	26215.6	23362	3365.36	419.835	416.734	416.733	26313.7	0.135513	4.90621
1201.36	285.322	35417.6	34670.4	2343.38	419.475	418.363	418.362	36596.5	1.40072	58.9449
1201.56	285.122	43902.6	42970.5	1575.22	420.831	420.459	420.459	44125.6	0.237996	11.1507
1201.76	284.922	45501	43730.2	1063.04	422.801	422.685	422.685	44370.6	-1.18493	-56.518
1201.96	284.722	36785.8	36458.3	754.513	424.631	424.597	424.597	36788.2	0.0028217	0.121014
1202.16	284.522	24752.8	25296	584.259	425.961	425.952	425.952	25454.4	0.997093	35.0779
1202.36	284.322	14663.7	14964.8	497.695	426.797	426.794	426.794	15035.7	0.687086	18.6045
1202.56	284.122	8037.22	7763.67	456.882	427.221	427.221	427.221	7793.33	-0.6083	-12.1943
1202.76	283.922	4291.1	3668.34	439.055	427.46	427.46	427.46	3679.94	-2.08621	-30.5582
1202.96	283.722	1996.1	1694.5	431.802	427.564	427.564	427.564	1698.73	-1.48829	-14.8684
1203.16	283.522	1890.08	867.117	429.083	427.636	427.636	427.636	868.564	-5.25398	-51.0756
1203.36	283.322	1431.76	563.171	428.143	427.681	427.681	427.681	563.633	-5.13019	-43.4064
1203.56	283.122	1084.24	464.841	427.855	427.718	427.718	427.718	464.978	-4.20531	-30.9633
1203.76	282.922	682.652	436.795	427.776	427.737	427.737	427.737	436.834	-2.10378	-12.2909
1203.96	282.722	578.006	429.727	427.763	427.753	427.753	427.753	429.737	-1.37902	-7.41347
1204.16	282.522	658.036	428.145	427.765	427.763	427.763	427.763	428.147	-2.00391	-11.4944
1204.36	282.322	702.83	427.841	427.776	427.775	427.775	427.775	427.841	-2.3194	-13.7494
1204.56	282.122	349.11	427.793	427.783	427.783	427.783	427.783	427.793	0.941639	3.93415
1204.76	281.922	472.58	427.787	427.785	427.785	427.785	427.785	427.787	-0.460744	-2.23966
1204.96	281.722	362.862	427.789	427.789	427.789	427.789	427.789	427.79	0.762154	3.24638
1205.16	281.522	359.332	359.332	359.332	359.332	359.332	359.332	359.332	0	0
1205.36	281.322	246.642	246.642	246.642	246.642	246.642	246.642	246.642	0	0
1205.56	281.122	194.422	194.422	194.422	194.422	194.422	194.422	194.422	0	0
1205.76	280.922	219.252	219.252	219.252	219.252	219.252	219.252	219.252	0	0
1205.96	280.722	332.966	332.966	332.966	332.966	332.966	332.966	332.966	0	0
1206.16	280.522	396.782	396.782	396.782	396.782	396.782	396.782	396.782	0	0
1206.36	280.322	210.102	210.102	210.102	210.102	210.102	210.102	210.102	0	0
1206.56	280.122	349.114	349.114	349.114	349.114	349.114	349.114	349.114	0	0
1206.76	279.922	170.075	170.075	170.075	170.075	170.075	170.075	170.075	0	0
1206.96	279.722	309.286	309.286	309.286	309.286	309.286	309.286	309.286	0	0
1207.16	279.522	168.235	168.235	168.235	168.235	168.235	168.235	168.235	0	0
1207.36	279.322	261.466	261.466	261.466	261.466	261.466	261.466	261.466	0	0
1207.56	279.122	130.434	130.434	130.434	130.434	130.434	130.434	130.434	0	0
1207.76	278.922	173.898	173.898	173.898	173.898	173.898	173.898	173.898	0	0
1207.96	278.722	228.92	228.92	228.92	228.92	228.92	228.92	228.92	0	0