Folder: stickleback_plastic_degradation/XPS (part 8)

File: 250418_195-3.2.csv
C1s Scan
	Characteristic Energy eV	1486.68	Acquisition Time s	0.05
KE_C1s Scan	BE_C1s Scan	CPS_C1s Scan	C-C/C-H_1_C1s Scan	C-O_2_C1s Scan	C=O_3_C1s Scan	O-C=O_4_C1s Scan	Background_C1s Scan	Envelope_C1s Scan	Normalised_Residual_C1s Scan	Residual_C1s Scan
1189.31	297.368	1980.89	1980.89	1980.89	1980.89	1980.89	1980.89	1980.89	0	0
1189.51	297.168	1631.36	1631.36	1631.36	1631.36	1631.36	1631.36	1631.36	0	0
1189.71	296.968	1817.35	1817.35	1817.35	1817.35	1817.35	1817.35	1817.35	0	0
1189.91	296.768	1651.03	1651.03	1651.03	1651.03	1651.03	1651.03	1651.03	0	0
1190.11	296.568	1741.03	1741.03	1741.03	1741.03	1741.03	1741.03	1741.03	0	0
1190.31	296.368	2151.84	2151.84	2151.84	2151.84	2151.84	2151.84	2151.84	0	0
1190.51	296.168	1934.4	1934.4	1934.4	1934.4	1934.4	1934.4	1934.4	0	0
1190.71	295.968	1648.48	1648.48	1648.48	1648.48	1648.48	1648.48	1648.48	0	0
1190.91	295.768	1914.06	1914.06	1914.06	1914.06	1914.06	1914.06	1914.06	0	0
1191.11	295.568	1701.31	1701.31	1701.31	1701.31	1701.31	1701.31	1701.31	0	0
1191.31	295.368	1754.07	1754.07	1754.07	1754.07	1754.07	1754.07	1754.07	0	0
1191.51	295.168	1754.74	1754.74	1754.74	1754.74	1754.74	1754.74	1754.74	0	0
1191.71	294.968	1577.65	1577.65	1577.65	1577.65	1577.65	1577.65	1577.65	0	0
1191.91	294.768	1787.08	1787.08	1787.08	1787.08	1787.08	1787.08	1787.08	0	0
1192.11	294.568	1693.95	1693.95	1693.95	1693.95	1693.95	1693.95	1693.95	0	0
1192.31	294.368	1780.07	1780.07	1780.07	1780.07	1780.07	1780.07	1780.07	0	0
1192.51	294.168	1354.67	1354.67	1354.67	1354.67	1354.67	1354.67	1354.67	0	0
1192.71	293.968	1751.46	1751.46	1751.46	1751.46	1751.46	1751.46	1751.46	0	0
1192.91	293.768	1717.93	1717.93	1717.93	1717.93	1717.93	1717.93	1717.93	0	0
1193.11	293.568	1593.58	1593.58	1593.58	1593.58	1593.58	1593.58	1593.58	0	0
1193.31	293.368	1848.29	1848.29	1848.29	1848.29	1848.29	1848.29	1848.29	0	0
1193.51	293.168	1668.5	1668.5	1668.5	1668.5	1668.5	1668.5	1668.5	0	0
1193.71	292.968	1733.83	1733.83	1733.83	1733.83	1733.83	1733.83	1733.83	0	0
1193.91	292.768	1652.77	1652.77	1652.77	1652.77	1652.77	1652.77	1652.77	0	0
1194.11	292.568	1306.83	1306.83	1306.83	1306.83	1306.83	1306.83	1306.83	0	0
1194.31	292.368	1314.54	1314.54	1314.54	1314.54	1314.54	1314.54	1314.54	0	0
1194.51	292.168	1717.61	1717.61	1717.61	1717.61	1717.61	1717.61	1717.61	0	0
1194.71	291.968	1385.6	1385.6	1385.6	1385.6	1385.62	1385.6	1385.62	0	0
1194.91	291.768	1617.3	1617.3	1617.3	1617.3	1617.37	1617.3	1617.37	0	0
1195.11	291.568	1598.3	1598.3	1598.3	1598.3	1598.54	1598.3	1598.54	0	0
1195.31	291.368	1568.22	1568.22	1568.22	1568.23	1568.96	1568.22	1568.96	0	0
1195.51	291.168	1532.55	1532.55	1532.55	1532.56	1534.68	1532.55	1534.69	0	0
1195.71	290.968	1629.28	1519.07	1519.07	1519.11	1524.75	1519.07	1524.78	-0.578863	-5.22466
1195.91	290.768	1267.78	1518.73	1518.73	1518.84	1532.85	1518.73	1532.95	1.6653	13.2587
1196.11	290.568	1497.01	1518.63	1518.63	1518.97	1551.11	1518.63	1551.44	0.314557	2.72142
1196.31	290.368	1668.36	1518.44	1518.44	1519.41	1587.54	1518.44	1588.5	-0.437196	-3.99307
1196.51	290.168	1427.15	1518.37	1518.37	1520.98	1654.07	1518.37	1656.68	1.35856	11.4762
1196.71	289.968	1585.6	1518.27	1518.27	1524.8	1763.52	1518.27	1770.04	1.03575	9.22221
1196.91	289.768	1912.54	1517.64	1517.64	1532.79	1922.91	1517.64	1938.06	0.1305	1.27615
1197.11	289.568	2227.48	1516.58	1516.59	1549.15	2123.2	1516.58	2155.78	-0.339717	-3.58517
1197.31	289.368	2554.38	1515.24	1515.28	1579.87	2329.2	1515.24	2393.86	-0.710191	-8.02607
1197.51	289.168	2898.06	1513.62	1513.75	1631.58	2482.1	1513.62	2600.19	-1.23724	-14.8934
1197.71	288.968	2641.8	1512.12	1512.56	1709.1	2525.15	1512.12	2722.57	0.351385	4.03848
1197.91	288.768	2850.7	1510.14	1511.49	1808.7	2439.21	1510.14	2739.12	-0.467282	-5.57879
1198.11	288.568	2916.44	1508.4	1512.24	1914.5	2259.3	1508.4	2669.25	-1.0235	-12.3594
1198.31	288.368	2416.84	1506.9	1516.99	1997.21	2046.81	1506.89	2547.24	0.593131	6.52018
1198.51	288.168	2229.12	1505.73	1530.33	2026.64	1854.87	1505.69	2400.49	0.811639	8.56869
1198.71	287.968	2320.56	1504.25	1559.91	1989.57	1709.34	1504.1	2250.77	-0.323945	-3.48942
1198.91	287.768	1966.23	1503.89	1620.2	1901.41	1613.92	1503.34	2129.41	0.822875	8.15898
1199.11	287.568	2005.2	1504.67	1728.34	1792.77	1557.58	1502.72	2075.21	0.3496	3.50054
1199.31	287.368	2032.98	1508.01	1901.73	1691.55	1526.79	1501.65	2123.13	0.447099	4.5077
1199.51	287.168	2207.48	1519.53	2147.93	1613.25	1511.06	1500.4	2290.57	0.395434	4.1544
1199.71	286.968	2328.96	1552.19	2446.95	1560.4	1503.25	1499.06	2565.62	1.09655	11.833
1199.91	286.768	2790.78	1633.51	2737.62	1527.83	1498.63	1497.1	2906.31	0.488995	5.77634
1200.11	286.568	3151.46	1818.19	2930.96	1508.86	1495.15	1494.63	3269.27	0.469241	5.89029
1200.31	286.368	3850.9	2199.25	2951.95	1497.23	1491.3	1491.13	3666.33	-0.665078	-9.22865
1200.51	286.168	3988.44	2914.36	2791.12	1490.02	1487.65	1487.6	4220.34	0.821083	11.5951
1200.71	285.968	4890.22	4119.34	2509.36	1483.97	1483.09	1483.08	5146.52	0.819539	12.815
1200.91	285.768	6569.08	5915.07	2196.26	1475.86	1475.56	1475.56	6636.07	0.184819	3.34953
1201.11	285.568	9394.06	8218.65	1921.33	1465.05	1464.95	1464.95	8675.13	-1.65861	-35.9464
1201.31	285.368	10575.7	10629.7	1715.3	1452.27	1452.24	1452.24	10892.8	0.68941	15.8532
1201.51	285.168	11925.7	12443.9	1575.6	1436.55	1436.54	1436.54	12583	1.34587	32.8646
1201.71	284.968	13372.7	12963.6	1486.77	1418.92	1418.92	1418.92	13031.4	-0.659922	-17.0643
1201.91	284.768	12436.1	11964.9	1433.11	1402.5	1402.5	1402.5	11995.5	-0.88339	-22.0282
1202.11	284.568	9508.64	9861.36	1402.21	1389.43	1389.43	1389.43	9874.14	0.838126	18.2748
1202.31	284.368	7633.04	7398.4	1384.48	1379.54	1379.54	1379.54	7403.34	-0.587888	-11.4849
1202.51	284.168	5274.16	5206.09	1374.86	1373.08	1373.08	1373.08	5207.86	-0.204122	-3.31475
1202.71	283.968	3898.56	3580.38	1369.56	1368.97	1368.97	1368.97	3580.97	-1.13735	-15.8793
1202.91	283.768	2597.52	2532.13	1367.13	1366.95	1366.95	1366.95	2532.31	-0.286083	-3.26029
1203.11	283.568	2368.92	1929.08	1365.41	1365.35	1365.35	1365.35	1929.13	-2.02049	-21.9895
1203.31	283.368	2116.44	1615.62	1364.36	1364.34	1364.34	1364.34	1615.63	-2.4342	-25.0405
1203.51	283.168	1816.8	1467.13	1363.76	1363.75	1363.75	1363.75	1467.14	-1.83435	-17.4832
1203.71	282.968	1689.47	1402.52	1363.22	1363.22	1363.22	1363.22	1402.52	-1.56105	-14.3476
1203.91	282.768	1579.28	1376.81	1363	1363	1363	1363	1376.81	-1.13923	-10.1234
1204.11	282.568	1474.89	1367.41	1362.91	1362.91	1362.91	1362.91	1367.41	-0.625811	-5.37413
1204.31	282.368	1499.44	1363.9	1362.54	1362.54	1362.54	1362.54	1363.9	-0.782707	-6.77718
1204.51	282.168	1644.46	1362.53	1362.16	1362.16	1362.16	1362.16	1362.53	-1.55455	-14.0962
1204.71	281.968	1529.62	1362.07	1361.97	1361.97	1361.97	1361.97	1362.07	-0.957977	-8.37785
1204.91	281.768	1181.36	1361.79	1361.77	1361.77	1361.77	1361.77	1361.79	1.1738	9.02137
1205.11	281.568	1688.99	1361.48	1361.48	1361.48	1361.48	1361.48	1361.48	-1.78191	-16.3751
1205.31	281.368	1293.75	1361.24	1361.24	1361.24	1361.24	1361.24	1361.24	0.419542	3.37432
1205.51	281.168	1708.42	1360.81	1360.81	1360.81	1360.81	1360.81	1360.81	-1.88052	-17.3805
1205.71	280.968	1497.05	1360.67	1360.67	1360.67	1360.67	1360.67	1360.67	-0.788185	-6.81917
1205.91	280.768	1463.2	1463.2	1463.2	1463.2	1463.2	1463.2	1463.2	0	0
1206.11	280.568	1646.36	1646.36	1646.36	1646.36	1646.36	1646.36	1646.36	0	0
1206.31	280.368	1304.04	1304.04	1304.04	1304.04	1304.04	1304.04	1304.04	0	0
1206.51	280.168	1185.17	1185.17	1185.17	1185.17	1185.17	1185.17	1185.17	0	0
1206.71	279.968	1209.82	1209.82	1209.82	1209.82	1209.82	1209.82	1209.82	0	0
1206.91	279.768	1392.08	1392.08	1392.08	1392.08	1392.08	1392.08	1392.08	0	0
1207.11	279.568	1387.58	1387.58	1387.58	1387.58	1387.58	1387.58	1387.58	0	0
1207.31	279.368	1175.55	1175.55	1175.55	1175.55	1175.55	1175.55	1175.55	0	0
1207.51	279.168	1198.09	1198.09	1198.09	1198.09	1198.09	1198.09	1198.09	0	0
1207.71	278.968	1260.32	1260.32	1260.32	1260.32	1260.32	1260.32	1260.32	0	0
1207.91	278.768	1206.57	1206.57	1206.57	1206.57	1206.57	1206.57	1206.57	0	0
1208.11	278.568	1403.35	1403.35	1403.35	1403.35	1403.35	1403.35	1403.35	0	0
1208.31	278.368	1441.24	1441.24	1441.24	1441.24	1441.24	1441.24	1441.24	0	0

File: 250418_195-3.3.csv
C1s Scan
	Characteristic Energy eV	1486.68	Acquisition Time s	0.05
KE_C1s Scan	BE_C1s Scan	CPS_C1s Scan	C-C/C-H_1_C1s Scan	C-O_2_C1s Scan	C=O_3_C1s Scan	O-C=O_4_C1s Scan	Background_C1s Scan	Envelope_C1s Scan	Normalised_Residual_C1s Scan	Residual_C1s Scan
1189.29	297.393	1771.29	1771.29	1771.29	1771.29	1771.29	1771.29	1771.29	0	0
1189.49	297.193	1940.88	1940.88	1940.88	1940.88	1940.88	1940.88	1940.88	0	0
1189.69	296.993	1952.89	1952.89	1952.89	1952.89	1952.89	1952.89	1952.89	0	0
1189.89	296.793	1779.59	1779.59	1779.59	1779.59	1779.59	1779.59	1779.59	0	0
1190.09	296.593	2071.02	2071.02	2071.02	2071.02	2071.02	2071.02	2071.02	0	0
1190.29	296.393	1989.17	1989.17	1989.17	1989.17	1989.17	1989.17	1989.17	0	0
1190.49	296.193	1757.36	1757.36	1757.36	1757.36	1757.36	1757.36	1757.36	0	0
1190.69	295.993	1988.28	1988.28	1988.28	1988.28	1988.28	1988.28	1988.28	0	0
1190.89	295.793	2037.42	2037.42	2037.42	2037.42	2037.42	2037.42	2037.42	0	0
1191.09	295.593	1658.32	1658.32	1658.32	1658.32	1658.32	1658.32	1658.32	0	0
1191.29	295.393	1746.94	1746.94	1746.94	1746.94	1746.94	1746.94	1746.94	0	0
1191.49	295.193	1399.25	1399.25	1399.25	1399.25	1399.25	1399.25	1399.25	0	0
1191.69	294.993	1571.11	1571.11	1571.11	1571.11	1571.11	1571.11	1571.11	0	0
1191.89	294.793	1674.81	1674.81	1674.81	1674.81	1674.81	1674.81	1674.81	0	0
1192.09	294.593	1541.43	1541.43	1541.43	1541.43	1541.43	1541.43	1541.43	0	0
1192.29	294.393	1504.93	1504.93	1504.93	1504.93	1504.93	1504.93	1504.93	0	0
1192.49	294.193	1711.38	1711.38	1711.38	1711.38	1711.38	1711.38	1711.38	0	0
1192.69	293.993	1672.72	1672.72	1672.72	1672.72	1672.72	1672.72	1672.72	0	0
1192.89	293.793	1665.45	1665.45	1665.45	1665.45	1665.45	1665.45	1665.45	0	0
1193.09	293.593	1589.83	1589.83	1589.83	1589.83	1589.83	1589.83	1589.83	0	0
1193.29	293.393	1746.54	1746.54	1746.54	1746.54	1746.54	1746.54	1746.54	0	0
1193.49	293.193	1384.45	1384.45	1384.45	1384.45	1384.45	1384.45	1384.45	0	0
1193.69	292.993	1693.95	1693.95	1693.95	1693.95	1693.95	1693.95	1693.95	0	0
1193.89	292.793	1712.37	1712.37	1712.37	1712.37	1712.37	1712.37	1712.37	0	0
1194.09	292.593	1822.76	1623.2	1623.2	1623.2	1623.2	1623.2	1623.2	-1.04519	-9.97804
1194.29	292.393	1767.16	1623	1623	1623	1623	1623	1623	-0.766804	-7.20786
1194.49	292.193	1452.39	1622.84	1622.84	1622.84	1622.85	1622.84	1622.85	1.00018	8.52325
1194.69	291.993	1577.1	1622.71	1622.71	1622.71	1622.74	1622.71	1622.74	0.257013	2.28228
1194.89	291.793	1552.11	1622.42	1622.42	1622.42	1622.53	1622.42	1622.53	0.399706	3.52116
1195.09	291.593	1098.24	1621.79	1621.79	1621.79	1622.14	1621.79	1622.14	3.53495	26.1949
1195.29	291.393	1435.18	1621.35	1621.35	1621.35	1622.32	1621.35	1622.32	1.10461	9.3572
1195.49	291.193	1721.27	1621.02	1621.02	1621.03	1623.61	1621.02	1623.61	-0.526323	-4.88272
1195.69	290.993	1682.73	1620.93	1620.93	1620.95	1627.35	1620.93	1627.36	-0.301782	-2.76813
1195.89	290.793	1457.54	1620.65	1620.65	1620.71	1635.63	1620.65	1635.68	1.04335	8.90685
1196.09	290.593	1663.96	1620.49	1620.49	1620.64	1653.11	1620.49	1653.25	-0.0586904	-0.535332
1196.29	290.393	1900.93	1620.07	1620.07	1620.46	1686.64	1620.07	1687.02	-1.09703	-10.6951
1196.49	290.193	1472.56	1619.86	1619.86	1620.81	1746.75	1619.86	1747.7	1.60324	13.7569
1196.69	289.993	1666.04	1619.82	1619.82	1622.03	1844.78	1619.82	1847	0.991359	9.04812
1196.89	289.793	2099.38	1619.41	1619.42	1624.21	1989.85	1619.41	1994.66	-0.511073	-5.23616
1197.09	289.593	2317.88	1618.54	1618.58	1628.31	2180.11	1618.54	2189.92	-0.594296	-6.39784
1197.29	289.393	2247.96	1617.32	1617.45	1635.86	2395.68	1617.32	2414.35	0.784722	8.31946
1197.49	289.193	2839.26	1615.5	1615.89	1648.29	2592.74	1615.5	2625.91	-0.895295	-10.6673
1197.69	288.993	2554.54	1613.97	1615.1	1667.7	2716.64	1613.97	2771.49	0.959835	10.8477
1197.89	288.793	2866.22	1612.2	1615.19	1693.28	2723.37	1612.2	2807.45	-0.245459	-2.93845
1198.09	288.593	2643.52	1610.24	1617.76	1722.08	2610.76	1610.23	2730.14	0.376734	4.33123
1198.29	288.393	2493.24	1608.66	1626.34	1748.36	2417.26	1608.66	2574.66	0.36461	4.07095
1198.49	288.193	2300.52	1607.52	1646.37	1764.19	2198.7	1607.5	2394.29	0.437173	4.68868
1198.69	287.993	2218.64	1606.61	1686.6	1763.49	2001.08	1606.49	2238.31	0.093386	0.983582
1198.89	287.793	1994.58	1605.9	1759.37	1746.06	1847.98	1605.45	2142.96	0.742864	7.41857
1199.09	287.593	1898.91	1606.38	1880.73	1717.77	1742.89	1604.78	2133.43	1.2034	11.7259
1199.29	287.393	2163.18	1609.11	2062.62	1686.05	1676.94	1603.84	2223.2	0.288554	3.00095
1199.49	287.193	2320.2	1618.65	2305.93	1657.23	1638.83	1602.61	2412.82	0.429972	4.63114
1199.69	286.993	2603.32	1646.23	2588.26	1634.55	1617.86	1601.11	2683.58	0.351734	4.01294
1199.89	286.793	3118.84	1716.03	2855.39	1617.72	1606.02	1598.76	2998.88	-0.48033	-5.9982
1200.09	286.593	3468.92	1877.73	3034.51	1606.15	1599.09	1596.13	3329.07	-0.530952	-6.99257
1200.29	286.393	4003.62	2216.92	3064.62	1597.83	1594.01	1592.89	3694.71	-1.09166	-15.4454
1200.49	286.193	4200.34	2863.21	2935.01	1591.82	1589.94	1589.54	4211.35	0.0379916	0.550573
1200.69	285.993	4754.04	3970.01	2686.71	1585.44	1584.59	1584.46	5073.38	1.03563	15.967
1200.89	285.793	6349.86	5653.84	2393.57	1577.67	1577.31	1577.27	6470.58	0.338762	6.03618
1201.09	285.593	8576.74	7869.74	2118.57	1567.48	1567.35	1567.33	8421.14	-0.375691	-7.77995
1201.29	285.393	10951.6	10272.6	1895.98	1553.57	1553.52	1553.52	10615.1	-0.719123	-16.8278
1201.49	285.193	11861.9	12203.2	1734.04	1537.29	1537.27	1537.27	12400	1.10459	26.9008
1201.69	284.993	13475.2	12943.5	1624.48	1519.15	1519.15	1519.15	13048.8	-0.821205	-21.3159
1201.89	284.793	11932.8	12172.7	1555	1502.41	1502.41	1502.41	12225.3	0.59867	14.6233
1202.09	284.593	10201.6	10214.8	1513.01	1488.49	1488.49	1488.49	10239.4	0.0835553	1.88709
1202.29	284.393	7782.74	7787.25	1487.84	1477.1	1477.1	1477.1	7797.99	0.038647	0.762373
1202.49	284.193	5805.9	5552.87	1474.28	1469.88	1469.88	1469.88	5557.26	-0.729655	-12.4319
1202.69	283.993	4088.4	3855.03	1466.69	1465	1465	1465	3856.72	-0.810211	-11.584
1202.89	283.793	3229.96	2738.51	1462.71	1462.11	1462.11	1462.11	2739.11	-1.93122	-24.5423
1203.09	283.593	2327.24	2086.14	1460.82	1460.61	1460.61	1460.61	2086.34	-1.11659	-12.0448
1203.29	283.393	1917.42	1742.05	1459.78	1459.72	1459.72	1459.72	1742.11	-0.895233	-8.76557
1203.49	283.193	1520.79	1577.03	1459.44	1459.43	1459.43	1459.43	1577.05	0.322565	2.81279
1203.69	282.993	1749.4	1504.2	1458.95	1458.94	1458.94	1458.94	1504.2	-1.31085	-12.2598
1203.89	282.793	1515.76	1474.77	1458.68	1458.68	1458.68	1458.68	1474.77	-0.235396	-2.04927
1204.09	282.593	1801.14	1463.63	1458.34	1458.34	1458.34	1458.34	1463.63	-1.77826	-16.8754
1204.29	282.393	1554.05	1459.88	1458.27	1458.27	1458.27	1458.27	1459.88	-0.534187	-4.70881
1204.49	282.193	1525.57	1458.64	1458.18	1458.18	1458.18	1458.18	1458.64	-0.383191	-3.3467
1204.69	281.993	1310.97	1458.12	1458	1458	1458	1458	1458.12	0.908724	7.35722
1204.89	281.793	1244.93	1457.83	1457.8	1457.8	1457.8	1457.8	1457.83	1.34926	10.6452
1205.09	281.593	1272.52	1457.61	1457.61	1457.61	1457.61	1457.61	1457.61	1.16022	9.2546
1205.29	281.393	1421.06	1457.57	1457.57	1457.57	1457.57	1457.57	1457.57	0.216546	1.82533
1205.49	281.193	1588.81	1457.46	1457.46	1457.46	1457.46	1457.46	1457.46	-0.736864	-6.56762
1205.69	280.993	1575.88	1575.88	1575.88	1575.88	1575.88	1575.88	1575.88	0	0
1205.89	280.793	1139.11	1139.11	1139.11	1139.11	1139.11	1139.11	1139.11	0	0
1206.09	280.593	1450.36	1450.36	1450.36	1450.36	1450.36	1450.36	1450.36	0	0
1206.29	280.393	1217.41	1217.41	1217.41	1217.41	1217.41	1217.41	1217.41	0	0
1206.49	280.193	1412.75	1412.75	1412.75	1412.75	1412.75	1412.75	1412.75	0	0
1206.69	279.993	1281.25	1281.25	1281.25	1281.25	1281.25	1281.25	1281.25	0	0
1206.89	279.793	1228.01	1228.01	1228.01	1228.01	1228.01	1228.01	1228.01	0	0
1207.09	279.593	1598.1	1598.1	1598.1	1598.1	1598.1	1598.1	1598.1	0	0
1207.29	279.393	1308.33	1308.33	1308.33	1308.33	1308.33	1308.33	1308.33	0	0
1207.49	279.193	1222.65	1222.65	1222.65	1222.65	1222.65	1222.65	1222.65	0	0
1207.69	278.993	1491.18	1491.18	1491.18	1491.18	1491.18	1491.18	1491.18	0	0
1207.89	278.793	1453.48	1453.48	1453.48	1453.48	1453.48	1453.48	1453.48	0	0
1208.09	278.593	1471.77	1471.77	1471.77	1471.77	1471.77	1471.77	1471.77	0	0
1208.29	278.393	1294.25	1294.25	1294.25	1294.25	1294.25	1294.25	1294.25	0	0

File: 250418_C-1.1.csv
C1s Scan
	Characteristic Energy eV	1486.68	Acquisition Time s	0.05
KE_C1s Scan	BE_C1s Scan	CPS_C1s Scan	C-C/C-H_1_C1s Scan	C-O_2_C1s Scan	C=O_3_C1s Scan	O-C=O_4_C1s Scan	Background_C1s Scan	Envelope_C1s Scan	Normalised_Residual_C1s Scan	Residual_C1s Scan
1188.91	297.767	3151.66	3151.66	3151.66	3151.66	3151.66	3151.66	3151.66	0	0
1189.11	297.567	3068.16	3068.16	3068.16	3068.16	3068.16	3068.16	3068.16	0	0
1189.31	297.367	2907.6	2907.6	2907.6	2907.6	2907.6	2907.6	2907.6	0	0
1189.51	297.167	2796.82	2796.82	2796.82	2796.82	2796.82	2796.82	2796.82	0	0
1189.71	296.967	3020.42	3020.42	3020.42	3020.42	3020.42	3020.42	3020.42	0	0
1189.91	296.767	2739.04	2739.04	2739.04	2739.04	2739.04	2739.04	2739.04	0	0
1190.11	296.567	2279.4	2279.4	2279.4	2279.4	2279.4	2279.4	2279.4	0	0
1190.31	296.367	3192.32	3192.32	3192.32	3192.32	3192.32	3192.32	3192.32	0	0
1190.51	296.167	3055.84	3055.84	3055.84	3055.84	3055.84	3055.84	3055.84	0	0
1190.71	295.967	2464.94	2464.94	2464.94	2464.94	2464.94	2464.94	2464.94	0	0
1190.91	295.767	2427.14	2427.14	2427.14	2427.14	2427.14	2427.14	2427.14	0	0
1191.11	295.567	2465.96	2465.96	2465.96	2465.96	2465.96	2465.96	2465.96	0	0
1191.31	295.367	2057.32	2057.32	2057.32	2057.32	2057.32	2057.32	2057.32	0	0
1191.51	295.167	1957.78	1957.78	1957.78	1957.78	1957.78	1957.78	1957.78	0	0
1191.71	294.967	1693.91	1693.91	1693.91	1693.91	1693.91	1693.91	1693.91	0	0
1191.91	294.767	1954.19	1954.19	1954.19	1954.19	1954.19	1954.19	1954.19	0	0
1192.11	294.567	1653.63	1653.63	1653.63	1653.63	1653.63	1653.63	1653.63	0	0
1192.31	294.367	1910.69	1910.69	1910.69	1910.69	1910.69	1910.69	1910.69	0	0
1192.51	294.167	1410.5	1410.5	1410.5	1410.5	1410.5	1410.5	1410.5	0	0
1192.71	293.967	1349.71	1349.71	1349.71	1349.71	1349.71	1349.71	1349.71	0	0
1192.91	293.767	1378.89	1378.89	1378.89	1378.89	1378.89	1378.89	1378.89	0	0
1193.11	293.567	1373	1373	1373	1373	1373	1373	1373	0	0
1193.31	293.367	1341.87	1341.87	1341.87	1341.87	1341.87	1341.87	1341.87	0	0
1193.51	293.167	1051.83	1051.83	1051.83	1051.83	1051.83	1051.83	1051.83	0	0
1193.71	292.967	918.76	918.76	918.76	918.76	918.76	918.76	918.76	0	0
1193.91	292.767	947.838	947.838	947.838	947.838	947.838	947.838	947.838	0	0
1194.11	292.567	762.802	762.802	762.802	762.802	762.803	762.802	762.803	0	0
1194.31	292.367	783.728	783.728	783.728	783.728	783.733	783.728	783.733	0	0
1194.51	292.167	646.414	646.414	646.414	646.414	646.431	646.414	646.431	0	0
1194.71	291.967	771.414	771.414	771.414	771.414	771.473	771.414	771.473	0	0
1194.91	291.767	755.062	755.062	755.062	755.062	755.251	755.062	755.251	0	0
1195.11	291.567	666.408	666.408	666.408	666.408	666.976	666.408	666.976	0	0
1195.31	291.367	597.174	597.174	597.174	597.175	598.776	597.174	598.777	0	0
1195.51	291.167	625.452	625.452	625.452	625.457	629.65	625.452	629.655	0	0
1195.71	290.967	534.772	606.776	606.776	606.794	617.116	606.776	617.134	0.796393	4.1181
1195.91	290.767	854.454	606.809	606.809	606.871	630.489	606.809	630.551	-1.71278	-11.1952
1196.11	290.567	518.792	606.819	606.819	607.022	657.663	606.819	657.865	1.36531	6.95367
1196.31	290.367	461.974	606.841	606.841	607.463	708.267	606.841	708.89	2.56877	12.3458
1196.51	290.167	741.15	606.862	606.863	608.639	795.577	606.862	797.354	0.461635	2.8102
1196.71	289.967	941.6	606.936	606.939	611.702	931.58	606.936	936.348	-0.0382686	-0.26258
1196.91	289.767	1078.82	607.01	607.019	618.904	1122.27	607.01	1134.17	0.376777	2.76722
1197.11	289.567	1560.02	607.192	607.227	635.039	1354.31	607.192	1382.19	-1.00674	-8.89132
1197.31	289.367	1742.58	607.453	607.583	668.133	1588.76	607.453	1649.57	-0.498189	-4.65024
1197.51	289.167	1857.46	607.728	608.17	731.422	1764.71	607.728	1888.85	0.162883	1.56972
1197.71	288.967	1902.4	608.032	609.43	842.167	1822.41	608.032	2057.95	0.797427	7.77727
1197.91	288.767	2212.94	608.386	612.533	1020.27	1742.17	608.386	2158.2	-0.260213	-2.73715
1198.11	288.567	2348.12	608.771	620.231	1276.57	1552.09	608.771	2231.34	-0.538875	-5.83893
1198.31	288.367	2482.66	609.218	638.899	1602.04	1314.75	609.218	2337.25	-0.652564	-7.27054
1198.51	288.167	2574.14	609.623	681.311	1949.75	1088.46	609.623	2500.28	-0.325523	-3.69303
1198.71	287.967	2536.04	610.077	772.114	2236.6	907.425	610.074	2695.99	0.710237	7.99773
1198.91	287.767	2495.16	610.499	951.897	2373.05	780.991	610.477	2885	1.74513	19.4922
1199.11	287.567	3006.66	611.092	1281.99	2307.2	701.453	610.942	3068.9	0.253818	3.11207
1199.31	287.367	3739.52	612.514	1836.54	2066.4	656.413	611.604	3337.06	-1.47163	-20.123
1199.51	287.167	4150.8	617.318	2682.66	1730.5	633.043	612.411	3826.29	-1.12629	-16.2256
1199.71	286.967	5355.16	636.538	3830.98	1391.08	622.344	613.444	4640.61	-2.1834	-35.7277
1199.91	286.767	6054.24	711.317	5177.3	1109.03	618.223	614.649	5771.92	-0.811335	-14.1161
1200.11	286.567	7358.46	970.252	6463.43	905.096	617.435	616.087	7107.95	-0.652995	-12.5253
1200.31	286.367	7849.92	1768.75	7327.84	774.386	618.082	617.61	8636.24	1.98449	39.3158
1200.51	286.167	10842.8	3898.46	7473.52	698.649	619.933	619.778	10831.2	-0.0247998	-0.577437
1200.71	285.967	15462.6	8845.4	6846.35	660.079	623.018	622.971	15105.9	-0.641361	-17.8332
1200.91	285.767	24407.4	18550.5	5674.8	644.094	627.872	627.859	23613.7	-1.13605	-39.6866
1201.11	285.567	37184	34290.7	4321.88	642.308	635.645	635.641	37983.6	0.927261	39.982
1201.31	285.367	57011.2	53945.5	3095.94	650.217	647.672	647.671	56396.3	-0.575815	-30.7431
1201.51	285.167	70228.6	70200.5	2154.75	664.095	663.182	663.182	71693	1.23565	73.2212
1201.71	284.967	75186.8	74020.7	1519.88	680.748	680.443	680.443	74860.4	-0.266159	-16.3191
1201.91	284.767	64988.6	62864.8	1134.54	696.26	696.165	696.165	63303.2	-1.4783	-84.2685
1202.11	284.567	43397.6	43682.4	920.755	707.525	707.497	707.497	43895.7	0.534599	24.9027
1202.31	284.367	23892.8	25503	810.697	713.978	713.971	713.971	25599.8	2.46934	85.3492
1202.51	284.167	12845	12905.7	758.26	717.247	717.245	717.245	12946.7	0.200568	5.08294
1202.71	283.967	7013.56	5919.53	735.182	718.951	718.95	718.95	5935.76	-2.87776	-53.8901
1202.91	283.767	3667.76	2657.69	725.854	719.84	719.84	719.84	2663.71	-3.70716	-50.2027
1203.11	283.567	2651.56	1356.88	722.455	720.377	720.377	720.377	1358.96	-5.61305	-64.6301
1203.31	283.367	1961.48	904.362	721.332	720.659	720.659	720.659	905.035	-5.33383	-52.8222
1203.51	283.167	1760.09	767.806	721.091	720.888	720.888	720.888	768.009	-5.28767	-49.604
1203.71	282.967	1314.12	731.552	721.085	721.028	721.028	721.028	731.61	-3.59313	-29.1257
1203.91	282.767	1272.63	723.228	721.154	721.139	721.139	721.139	723.243	-3.4436	-27.4694
1204.11	282.567	1072.45	721.58	721.22	721.216	721.216	721.216	721.584	-2.39573	-17.5433
1204.31	282.367	937.87	721.332	721.277	721.276	721.276	721.276	721.333	-1.58105	-10.8268
1204.51	282.167	663.002	721.291	721.284	721.284	721.284	721.284	721.291	0.506194	2.91447
1204.71	281.967	693.964	721.289	721.288	721.288	721.288	721.288	721.289	0.23194	1.36625
1204.91	281.767	742.894	742.894	742.894	742.894	742.894	742.894	742.894	0	0
1205.11	281.567	506.468	506.468	506.468	506.468	506.468	506.468	506.468	0	0
1205.31	281.367	544.794	544.794	544.794	544.794	544.794	544.794	544.794	0	0
1205.51	281.167	619.236	619.236	619.236	619.236	619.236	619.236	619.236	0	0
1205.71	280.967	553.432	553.432	553.432	553.432	553.432	553.432	553.432	0	0
1205.91	280.767	465.376	465.376	465.376	465.376	465.376	465.376	465.376	0	0
1206.11	280.567	270.748	270.748	270.748	270.748	270.748	270.748	270.748	0	0
1206.31	280.367	507.532	507.532	507.532	507.532	507.532	507.532	507.532	0	0
1206.51	280.167	421.29	421.29	421.29	421.29	421.29	421.29	421.29	0	0
1206.71	279.967	368.178	368.178	368.178	368.178	368.178	368.178	368.178	0	0
1206.91	279.767	325.8	325.8	325.8	325.8	325.8	325.8	325.8	0	0
1207.11	279.567	353.97	353.97	353.97	353.97	353.97	353.97	353.97	0	0
1207.31	279.367	342.29	342.29	342.29	342.29	342.29	342.29	342.29	0	0
1207.51	279.167	290.578	290.578	290.578	290.578	290.578	290.578	290.578	0	0
1207.71	278.967	385.548	385.548	385.548	385.548	385.548	385.548	385.548	0	0
1207.91	278.767	308.844	308.844	308.844	308.844	308.844	308.844	308.844	0	0