Folder: stickleback_plastic_degradation/XPS (part 2)

File: 241019_191x195-2.3.csv
C1s Scan
	Characteristic Energy eV	1486.68	Acquisition Time s	0.05
KE_C1s Scan	BE_C1s Scan	CPS_C1s Scan	C-C/C-H_1_C1s Scan	C-O_2_C1s Scan	C=O_3_C1s Scan	O-C=O_4_C1s Scan	Background_C1s Scan	Envelope_C1s Scan	Normalised_Residual_C1s Scan	Residual_C1s Scan
1188.97	297.707	2239.36	2239.36	2239.36	2239.36	2239.36	2239.36	2239.36	0	0
1189.17	297.507	1681.61	1681.61	1681.61	1681.61	1681.61	1681.61	1681.61	0	0
1189.37	297.307	1993.27	1993.27	1993.27	1993.27	1993.27	1993.27	1993.27	0	0
1189.57	297.107	1905.77	1905.77	1905.77	1905.77	1905.77	1905.77	1905.77	0	0
1189.77	296.907	1676.5	1676.5	1676.5	1676.5	1676.5	1676.5	1676.5	0	0
1189.97	296.707	1834.82	1834.82	1834.82	1834.82	1834.82	1834.82	1834.82	0	0
1190.17	296.507	1537.19	1537.19	1537.19	1537.19	1537.19	1537.19	1537.19	0	0
1190.37	296.307	1766.16	1766.16	1766.16	1766.16	1766.16	1766.16	1766.16	0	0
1190.57	296.107	1815.08	1815.08	1815.08	1815.08	1815.08	1815.08	1815.08	0	0
1190.77	295.907	1647.46	1647.46	1647.46	1647.46	1647.46	1647.46	1647.46	0	0
1190.97	295.707	1236.1	1236.1	1236.1	1236.1	1236.1	1236.1	1236.1	0	0
1191.17	295.507	1353.64	1353.64	1353.64	1353.64	1353.64	1353.64	1353.64	0	0
1191.37	295.307	1235.77	1235.77	1235.77	1235.77	1235.77	1235.77	1235.77	0	0
1191.57	295.107	1312.67	1312.67	1312.67	1312.67	1312.67	1312.67	1312.67	0	0
1191.77	294.907	1237.85	1237.85	1237.85	1237.85	1237.85	1237.85	1237.85	0	0
1191.97	294.707	985.392	985.392	985.392	985.392	985.392	985.392	985.392	0	0
1192.17	294.507	1024.02	1024.02	1024.02	1024.02	1024.02	1024.02	1024.02	0	0
1192.37	294.307	895.724	895.724	895.724	895.724	895.724	895.724	895.724	0	0
1192.57	294.107	795.94	795.94	795.94	795.94	795.94	795.94	795.94	0	0
1192.77	293.907	940.804	940.804	940.804	940.804	940.804	940.804	940.804	0	0
1192.97	293.707	897.75	897.75	897.75	897.75	897.75	897.75	897.75	0	0
1193.17	293.507	549.306	549.306	549.306	549.306	549.306	549.306	549.306	0	0
1193.37	293.307	632.182	632.182	632.182	632.182	632.182	632.182	632.182	0	0
1193.57	293.107	621.3	621.3	621.3	621.3	621.301	621.3	621.301	0	0
1193.77	292.907	561.228	561.228	561.228	561.228	561.231	561.228	561.231	0	0
1193.97	292.707	614.088	614.088	614.088	614.088	614.099	614.088	614.099	0	0
1194.17	292.507	465.198	465.198	465.198	465.198	465.231	465.198	465.231	0	0
1194.37	292.307	477.634	477.634	477.634	477.634	477.726	477.634	477.726	0	0
1194.57	292.107	549.382	549.382	549.382	549.382	549.629	549.382	549.629	0	0
1194.77	291.907	574.556	574.556	574.556	574.557	575.184	574.556	575.185	0	0
1194.97	291.707	375.686	375.686	375.686	375.69	377.201	375.686	377.205	0	0
1195.17	291.507	468.832	468.832	468.832	468.846	472.293	468.832	472.307	0	0
1195.37	291.307	420.742	420.742	420.742	420.784	428.236	420.742	428.278	0	0
1195.57	291.107	318.084	272.145	272.145	272.268	287.521	272.145	287.643	-0.381656	-1.52205
1195.77	290.907	305.578	272.154	272.154	272.491	302.024	272.154	302.361	-0.0411505	-0.16085
1195.97	290.707	301.02	272.176	272.176	273.056	327.075	272.176	327.955	0.347142	1.34676
1196.17	290.507	525.892	272.219	272.22	274.395	367.523	272.219	369.7	-1.52299	-7.80961
1196.37	290.307	407.656	272.255	272.259	277.353	428.221	272.255	433.323	0.284253	1.28333
1196.57	290.107	549.818	272.311	272.325	283.634	511.821	272.311	523.158	-0.254239	-1.33302
1196.77	289.907	705.314	272.418	272.463	296.273	615.775	272.418	639.675	-0.552659	-3.28196
1196.97	289.707	662.198	272.531	272.667	320.221	729.268	272.531	777.094	0.998381	5.74481
1197.17	289.507	712.594	272.639	273.033	362.851	832.656	272.639	923.263	1.76467	10.5334
1197.37	289.307	1111.03	272.814	273.898	434.088	901.862	272.814	1064.22	-0.314011	-2.34041
1197.57	289.107	1073.17	273.049	275.874	544.962	917.655	273.049	1192.39	0.813776	5.96107
1197.77	288.907	1202.07	273.293	280.264	704.355	875.277	273.293	1313.31	0.71742	5.56191
1197.97	288.707	1437.93	273.551	289.855	913.354	787.073	273.551	1443.18	0.0309406	0.262351
1198.17	288.507	1865.55	273.884	310.027	1158.08	676.306	273.884	1596.64	-1.39214	-13.4453
1198.37	288.307	1697.49	274.259	350.186	1404.58	565.927	274.258	1772.17	0.405306	3.73398
1198.57	288.107	1884.11	274.639	425.757	1601.88	471.429	274.636	1949.8	0.338385	3.28435
1198.77	287.907	2250.24	275.07	559.935	1699.07	399.346	275.051	2108.27	-0.669237	-7.09871
1198.97	287.707	2416.6	275.606	783.61	1667.95	349.296	275.493	2249.99	-0.757867	-8.33067
1199.17	287.507	2690.44	276.653	1130.53	1518.14	317.375	276.05	2414.55	-1.18935	-13.7945
1199.37	287.307	2757.3	279.51	1627.26	1291.48	298.489	276.623	2666.87	-0.385064	-4.52126
1199.57	287.107	3033.66	289.587	2275.22	1041.38	288.176	277.214	3062.72	0.117958	1.45277
1199.77	286.907	3375.94	325.555	3028.77	811.821	283.231	278.02	3615.32	0.921238	11.9689
1199.97	286.707	4610.86	442.638	3780.64	626.972	281.265	278.917	4294.77	-1.0409	-15.8047
1200.17	286.507	4661.84	785.503	4374.73	493.053	280.967	279.964	5094.36	1.41648	21.6259
1200.37	286.307	6403.64	1679.77	4655.95	404.303	281.814	281.408	6177.62	-0.631578	-11.3012
1200.57	286.107	8394.46	3740.88	4540.61	350.144	283.362	283.206	8065.38	-0.80314	-16.454
1200.77	285.907	11542.1	7895.11	4065.82	320.11	285.678	285.621	11709.9	0.349187	8.38852
1200.97	285.707	17732.7	15077.2	3364.9	306.236	289.43	289.41	18169.5	0.733545	21.8423
1201.17	285.507	28786.4	25350.8	2602.5	303.323	295.552	295.546	27665.5	-1.47724	-56.0443
1201.37	285.307	38836	36669.4	1910.25	307.526	304.122	304.12	38278.9	-0.632099	-27.854
1201.57	285.107	45507.6	44662.4	1358.67	315.953	314.541	314.54	45707.9	0.209978	10.0162
1201.77	284.907	45784.2	45147.3	962.508	326.159	325.601	325.601	45784.8	0.000623576	0.0298354
1201.97	284.707	39133.4	37847.2	701.392	335.677	335.468	335.468	38213.3	-1.04005	-46.0058
1202.17	284.507	26602.8	26666.5	541.188	342.465	342.391	342.391	26865.4	0.360009	13.1299
1202.37	284.307	16528.9	16135.8	449.187	347.023	346.998	346.998	16238	-0.505837	-14.5418
1202.57	284.107	7487.28	8590.38	398.879	349.137	349.129	349.129	8640.14	2.97919	57.6429
1202.77	283.907	4625.96	4143.98	373.235	350.287	350.285	350.285	4166.93	-1.50912	-22.9514
1202.97	283.707	2768.94	1904.02	360.973	350.941	350.94	350.94	1914.05	-3.63277	-42.7444
1203.17	283.507	1753.35	919.456	355.474	351.318	351.317	351.317	923.613	-4.43088	-41.4867
1203.37	283.307	1052.91	537.741	353.189	351.558	351.557	351.557	539.372	-3.53886	-25.677
1203.57	283.107	1162.49	406.459	352.369	351.762	351.762	351.762	407.066	-4.95428	-37.7711
1203.77	282.907	872.816	366.279	352.087	351.872	351.872	351.872	366.494	-3.83222	-25.3161
1203.97	282.707	738.828	355.36	352.031	351.959	351.959	351.959	355.432	-3.154	-19.1698
1204.17	282.507	506.842	352.713	352.017	351.994	351.994	351.994	352.736	-1.53062	-7.70529
1204.37	282.307	555.136	352.191	352.061	352.055	352.055	352.055	352.198	-1.92597	-10.1469
1204.57	282.107	469.962	352.097	352.076	352.074	352.074	352.074	352.099	-1.21571	-5.89313
1204.77	281.907	500.296	352.111	352.108	352.108	352.108	352.108	352.112	-1.4814	-7.40921
1204.97	281.707	362.79	352.13	352.129	352.129	352.129	352.129	352.13	-0.125148	-0.53301
1205.17	281.507	386.908	386.908	386.908	386.908	386.908	386.908	386.908	0	0
1205.37	281.307	303.956	303.956	303.956	303.956	303.956	303.956	303.956	0	0
1205.57	281.107	361.226	361.226	361.226	361.226	361.226	361.226	361.226	0	0
1205.77	280.907	286.552	286.552	286.552	286.552	286.552	286.552	286.552	0	0
1205.97	280.707	328.678	328.678	328.678	328.678	328.678	328.678	328.678	0	0
1206.17	280.507	403.398	403.398	403.398	403.398	403.398	403.398	403.398	0	0
1206.37	280.307	198.244	198.244	198.244	198.244	198.244	198.244	198.244	0	0
1206.57	280.107	326.77	326.77	326.77	326.77	326.77	326.77	326.77	0	0
1206.77	279.907	290.264	290.264	290.264	290.264	290.264	290.264	290.264	0	0
1206.97	279.707	262.826	262.826	262.826	262.826	262.826	262.826	262.826	0	0
1207.17	279.507	244.928	244.928	244.928	244.928	244.928	244.928	244.928	0	0
1207.37	279.307	232.894	232.894	232.894	232.894	232.894	232.894	232.894	0	0
1207.57	279.107	205.386	205.386	205.386	205.386	205.386	205.386	205.386	0	0
1207.77	278.907	236.204	236.204	236.204	236.204	236.204	236.204	236.204	0	0
1207.97	278.707	170.624	170.624	170.624	170.624	170.624	170.624	170.624	0	0

File: 241019_191x195-3.1.csv
C1s Scan
	Characteristic Energy eV	1486.68	Acquisition Time s	0.05
KE_C1s Scan	BE_C1s Scan	CPS_C1s Scan	C-C/C-H_1_C1s Scan	C-O_2_C1s Scan	C=O_3_C1s Scan	O-C=O_4_C1s Scan	Background_C1s Scan	Envelope_C1s Scan	Normalised_Residual_C1s Scan	Residual_C1s Scan
1189.04	297.644	2963.5	2963.5	2963.5	2963.5	2963.5	2963.5	2963.5	0	0
1189.24	297.444	2898.32	2898.32	2898.32	2898.32	2898.32	2898.32	2898.32	0	0
1189.44	297.244	2378.1	2378.1	2378.1	2378.1	2378.1	2378.1	2378.1	0	0
1189.64	297.044	2517.32	2517.32	2517.32	2517.32	2517.32	2517.32	2517.32	0	0
1189.84	296.844	2341.42	2341.42	2341.42	2341.42	2341.42	2341.42	2341.42	0	0
1190.04	296.644	2445.68	2445.68	2445.68	2445.68	2445.68	2445.68	2445.68	0	0
1190.24	296.444	2393.8	2393.8	2393.8	2393.8	2393.8	2393.8	2393.8	0	0
1190.44	296.244	2031.44	2031.44	2031.44	2031.44	2031.44	2031.44	2031.44	0	0
1190.64	296.044	2403.18	2403.18	2403.18	2403.18	2403.18	2403.18	2403.18	0	0
1190.84	295.844	2130.54	2130.54	2130.54	2130.54	2130.54	2130.54	2130.54	0	0
1191.04	295.644	2210.3	2210.3	2210.3	2210.3	2210.3	2210.3	2210.3	0	0
1191.24	295.444	1844.08	1844.08	1844.08	1844.08	1844.08	1844.08	1844.08	0	0
1191.44	295.244	1589.81	1589.81	1589.81	1589.81	1589.81	1589.81	1589.81	0	0
1191.64	295.044	1574.86	1574.86	1574.86	1574.86	1574.86	1574.86	1574.86	0	0
1191.84	294.844	1564.23	1564.23	1564.23	1564.23	1564.23	1564.23	1564.23	0	0
1192.04	294.644	1444.17	1444.17	1444.17	1444.17	1444.17	1444.17	1444.17	0	0
1192.24	294.444	1516.61	1516.61	1516.61	1516.61	1516.61	1516.61	1516.61	0	0
1192.44	294.244	1268.53	1268.53	1268.53	1268.53	1268.53	1268.53	1268.53	0	0
1192.64	294.044	1656.47	1656.47	1656.47	1656.47	1656.47	1656.47	1656.47	0	0
1192.84	293.844	1362.34	1362.34	1362.34	1362.34	1362.34	1362.34	1362.34	0	0
1193.04	293.644	1023.7	1023.7	1023.7	1023.7	1023.7	1023.7	1023.7	0	0
1193.24	293.444	960.568	960.568	960.568	960.568	960.568	960.568	960.568	0	0
1193.44	293.244	874.102	874.102	874.102	874.102	874.102	874.102	874.102	0	0
1193.64	293.044	743.718	743.718	743.718	743.718	743.718	743.718	743.718	0	0
1193.84	292.844	626.212	626.212	626.212	626.212	626.212	626.212	626.212	0	0
1194.04	292.644	781.678	781.678	781.678	781.678	781.678	781.678	781.678	0	0
1194.24	292.444	738.8	738.8	738.8	738.8	738.802	738.8	738.802	0	0
1194.44	292.244	566.682	566.682	566.682	566.682	566.688	566.682	566.688	0	0
1194.64	292.044	554.798	554.798	554.798	554.798	554.82	554.798	554.82	0	0
1194.84	291.844	625.22	625.22	625.22	625.22	625.293	625.22	625.293	0	0
1195.04	291.644	444.374	444.374	444.374	444.374	444.603	444.374	444.604	0	0
1195.24	291.444	559.372	559.372	559.372	559.373	560.043	559.372	560.044	0	0
1195.44	291.244	405.468	405.468	405.468	405.47	407.318	405.468	407.32	0	0
1195.64	291.044	400.084	456.685	456.685	456.695	461.418	456.685	461.428	0.685771	3.06718
1195.84	290.844	420.126	456.693	456.693	456.728	468.074	456.693	468.109	0.523459	2.39915
1196.04	290.644	426.316	456.705	456.705	456.825	482.15	456.705	482.27	0.605967	2.79769
1196.24	290.444	441.702	456.72	456.72	457.098	510.017	456.72	510.395	0.730857	3.43465
1196.44	290.244	570.044	456.741	456.741	457.864	560.431	456.741	561.554	-0.0795161	-0.424516
1196.64	290.044	804.028	456.85	456.851	459.945	644.682	456.85	647.779	-1.23216	-7.81246
1196.84	289.844	928.93	457.001	457.006	465.02	771.202	457.001	779.225	-1.09832	-7.48525
1197.04	289.644	811.076	457.194	457.213	476.519	940.654	457.194	959.999	1.16927	7.44613
1197.24	289.444	988.152	457.374	457.445	501.047	1135.08	457.374	1178.82	1.35631	9.53356
1197.44	289.244	1465.29	457.668	457.918	549.52	1315.12	457.668	1407.22	-0.339239	-2.90371
1197.64	289.044	1447.09	457.996	458.814	638.423	1429	457.996	1610.24	0.959039	8.15771
1197.84	288.844	1753.68	458.419	460.924	787.241	1436	458.419	1767.32	0.0728801	0.682447
1198.04	288.644	1859.25	458.903	466.058	1014.08	1334.65	458.903	1896.99	0.195688	1.88676
1198.24	288.444	1771.41	459.408	478.551	1320.9	1160.37	459.408	2041	1.43226	13.4793
1198.44	288.244	2585.38	460.046	507.822	1679.83	965.975	460.046	2233.53	-1.54732	-17.5925
1198.64	288.044	2347.76	460.661	572.278	2021.28	793.171	460.66	2465.41	0.542944	5.88256
1198.84	287.844	2960.42	461.445	704.57	2248.76	661.965	461.437	2692.43	-1.10134	-13.3993
1199.04	287.644	2694.4	462.199	956.839	2284.46	574.025	462.138	2891.11	0.847368	9.83532
1199.24	287.444	3057.14	463.295	1398.62	2114.19	520.797	462.903	3108.2	0.206493	2.55299
1199.44	287.244	3612.02	466.162	2107.27	1800.8	491.904	463.956	3474.27	-0.512506	-6.88746
1199.64	287.044	4437.4	476.079	3126.37	1439.98	477.729	465.164	4124.66	-1.04981	-15.6372
1199.84	286.844	5472.48	514.407	4416.66	1113.11	472.002	466.714	5116.03	-1.07744	-17.8225
1200.04	286.644	6520.7	652.736	5791.13	861.948	470.657	468.582	6370.73	-0.415292	-7.4987
1200.24	286.444	7676.46	1097.39	6919.63	691.837	471.583	470.82	7767.98	0.233582	4.57619
1200.44	286.244	8542.46	2359.63	7446.97	588.747	473.664	473.403	9448.8	2.19272	45.3169
1200.64	286.044	12133.1	5461.29	7176.32	532.983	477.058	476.974	12216.7	0.16968	4.17929
1200.84	285.844	18719.1	12049.9	6216.95	507.907	482.536	482.51	17809.7	-1.48627	-45.4702
1201.04	285.644	29214.6	23734.2	4890.94	501.655	490.915	490.908	28145	-1.39929	-53.4801
1201.24	285.444	43784.2	40404.6	3559.63	508.145	503.894	503.892	43464.6	-0.341573	-15.9819
1201.44	285.244	58742.2	57710.3	2461.73	523.59	522.019	522.018	59651.6	0.83899	45.4692
1201.64	285.044	68743.2	67444.6	1676.78	544.62	544.077	544.076	68577.8	-0.141031	-8.26826
1201.84	284.844	65145.4	63649.9	1179.71	566.316	566.141	566.141	64263.6	-0.77252	-44.0896
1202.04	284.644	48834.4	48767.1	892.232	583.911	583.859	583.859	49075.6	0.24402	12.0579
1202.24	284.444	29463.2	30995.9	740.151	595.27	595.255	595.255	31140.8	2.18543	83.8805
1202.44	284.244	16034.7	16815.2	664.949	601.627	601.623	601.623	16878.5	1.4901	42.1921
1202.64	284.044	8678.46	8063.64	630.624	604.649	604.648	604.648	8089.62	-1.41338	-29.4419
1202.84	283.844	4609.18	3593.8	616.129	606.226	606.226	606.226	3603.7	-3.31167	-50.274
1203.04	283.644	3044.76	1662.13	610.62	607.067	607.067	607.067	1665.68	-5.58854	-68.9541
1203.24	283.444	2237.52	934.867	608.836	607.655	607.655	607.655	936.048	-6.15228	-65.0736
1203.44	283.244	1663.61	697.988	608.393	608.023	608.023	608.023	698.358	-5.29176	-48.2627
1203.64	283.044	1384.29	630.038	608.382	608.274	608.274	608.274	630.145	-4.53236	-37.707
1203.84	282.844	1020.2	613.078	608.448	608.418	608.418	608.418	613.107	-2.84993	-20.3546
1204.04	282.644	1093.62	609.395	608.523	608.516	608.516	608.516	609.402	-3.27413	-24.2111
1204.24	282.444	838.304	608.759	608.615	608.613	608.613	608.613	608.761	-1.77276	-11.4772
1204.44	282.244	703.566	608.665	608.644	608.643	608.643	608.643	608.665	-0.800025	-4.74505
1204.64	282.044	652.154	608.671	608.669	608.668	608.668	608.668	608.671	-0.380738	-2.17413
1204.84	281.844	666.41	608.699	608.699	608.699	608.699	608.699	608.699	-0.499887	-2.88554
1205.04	281.644	683.144	608.712	608.712	608.712	608.712	608.712	608.712	-0.636778	-3.7216
1205.24	281.444	421.202	421.202	421.202	421.202	421.202	421.202	421.202	0	0
1205.44	281.244	465.012	465.012	465.012	465.012	465.012	465.012	465.012	0	0
1205.64	281.044	447.946	447.946	447.946	447.946	447.946	447.946	447.946	0	0
1205.84	280.844	494.514	494.514	494.514	494.514	494.514	494.514	494.514	0	0
1206.04	280.644	314.166	314.166	314.166	314.166	314.166	314.166	314.166	0	0
1206.24	280.444	368.276	368.276	368.276	368.276	368.276	368.276	368.276	0	0
1206.44	280.244	402.658	402.658	402.658	402.658	402.658	402.658	402.658	0	0
1206.64	280.044	163.673	163.673	163.673	163.673	163.673	163.673	163.673	0	0
1206.84	279.844	316.03	316.03	316.03	316.03	316.03	316.03	316.03	0	0
1207.04	279.644	218.508	218.508	218.508	218.508	218.508	218.508	218.508	0	0
1207.24	279.444	287.618	287.618	287.618	287.618	287.618	287.618	287.618	0	0
1207.44	279.244	174.781	174.781	174.781	174.781	174.781	174.781	174.781	0	0
1207.64	279.044	333.59	333.59	333.59	333.59	333.59	333.59	333.59	0	0
1207.84	278.844	190.299	190.299	190.299	190.299	190.299	190.299	190.299	0	0
1208.04	278.644	231.206	231.206	231.206	231.206	231.206	231.206	231.206	0	0

File: 241019_191x195-3.2.csv
C1s Scan
	Characteristic Energy eV	1486.68	Acquisition Time s	0.05
KE_C1s Scan	BE_C1s Scan	CPS_C1s Scan	C-C/C-H_1_C1s Scan	C-O_2_C1s Scan	C=O_3_C1s Scan	O-C=O_4_C1s Scan	Background_C1s Scan	Envelope_C1s Scan	Normalised_Residual_C1s Scan	Residual_C1s Scan
1188.98	297.699	2723.04	2723.04	2723.04	2723.04	2723.04	2723.04	2723.04	0	0
1189.18	297.499	2863.26	2863.26	2863.26	2863.26	2863.26	2863.26	2863.26	0	0
1189.38	297.299	2757.42	2757.42	2757.42	2757.42	2757.42	2757.42	2757.42	0	0
1189.58	297.099	2407.64	2407.64	2407.64	2407.64	2407.64	2407.64	2407.64	0	0
1189.78	296.899	2786.02	2786.02	2786.02	2786.02	2786.02	2786.02	2786.02	0	0
1189.98	296.699	2569.6	2569.6	2569.6	2569.6	2569.6	2569.6	2569.6	0	0
1190.18	296.499	2461.32	2461.32	2461.32	2461.32	2461.32	2461.32	2461.32	0	0
1190.38	296.299	2051.6	2051.6	2051.6	2051.6	2051.6	2051.6	2051.6	0	0
1190.58	296.099	2143.96	2143.96	2143.96	2143.96	2143.96	2143.96	2143.96	0	0
1190.78	295.899	2169.76	2169.76	2169.76	2169.76	2169.76	2169.76	2169.76	0	0
1190.98	295.699	2214.36	2214.36	2214.36	2214.36	2214.36	2214.36	2214.36	0	0
1191.18	295.499	1587.75	1587.75	1587.75	1587.75	1587.75	1587.75	1587.75	0	0
1191.38	295.299	2314.84	2314.84	2314.84	2314.84	2314.84	2314.84	2314.84	0	0
1191.58	295.099	1663.92	1663.92	1663.92	1663.92	1663.92	1663.92	1663.92	0	0
1191.78	294.899	1668.84	1668.84	1668.84	1668.84	1668.84	1668.84	1668.84	0	0
1191.98	294.699	1811.85	1811.85	1811.85	1811.85	1811.85	1811.85	1811.85	0	0
1192.18	294.499	1300.56	1300.56	1300.56	1300.56	1300.56	1300.56	1300.56	0	0
1192.38	294.299	1751.16	1751.16	1751.16	1751.16	1751.16	1751.16	1751.16	0	0
1192.58	294.099	1100.53	1100.53	1100.53	1100.53	1100.53	1100.53	1100.53	0	0
1192.78	293.899	1094.06	1094.06	1094.06	1094.06	1094.06	1094.06	1094.06	0	0
1192.98	293.699	1227.25	1227.25	1227.25	1227.25	1227.25	1227.25	1227.25	0	0
1193.18	293.499	1182.69	1182.69	1182.69	1182.69	1182.69	1182.69	1182.69	0	0
1193.38	293.299	928.432	928.432	928.432	928.432	928.432	928.432	928.432	0	0
1193.58	293.099	727.768	727.768	727.768	727.768	727.768	727.768	727.768	0	0
1193.78	292.899	959.39	959.39	959.39	959.39	959.39	959.39	959.39	0	0
1193.98	292.699	719.428	719.428	719.428	719.428	719.428	719.428	719.428	0	0
1194.18	292.499	657.18	657.18	657.18	657.18	657.181	657.18	657.181	0	0
1194.38	292.299	592.892	592.892	592.892	592.892	592.896	592.892	592.896	0	0
1194.58	292.099	529.618	529.618	529.618	529.618	529.633	529.618	529.633	0	0
1194.78	291.899	462.986	462.986	462.986	462.986	463.037	462.986	463.037	0	0
1194.98	291.699	371.82	371.82	371.82	371.82	371.983	371.82	371.983	0	0
1195.18	291.499	425.53	425.53	425.53	425.53	426.019	425.53	426.02	0	0
1195.38	291.299	576.006	576.006	576.006	576.007	577.376	576.006	577.377	0	0
1195.58	291.099	327.8	451.661	451.661	451.667	455.253	451.661	455.259	1.57417	6.37294
1195.78	290.899	522.41	451.698	451.698	451.72	460.484	451.698	460.505	-0.605626	-3.09525
1195.98	290.699	489.648	451.721	451.721	451.796	471.828	451.721	471.903	-0.179315	-0.887247
1196.18	290.499	379.168	451.741	451.741	451.983	494.656	451.741	494.898	1.32897	5.78648
1196.38	290.299	536.612	451.84	451.84	452.576	537.298	451.84	538.034	0.013724	0.0710878
1196.58	290.099	565.782	451.966	451.966	454.046	610.132	451.966	612.213	0.436486	2.32156
1196.78	289.899	620.754	452.056	452.059	457.581	723.313	452.056	728.841	0.970057	5.40433
1196.98	289.699	1003.8	452.276	452.287	465.93	880.648	452.276	894.313	-0.772706	-5.47423
1197.18	289.499	1252.01	452.63	452.673	484.268	1070.87	452.63	1102.55	-0.944499	-7.47292
1197.38	289.299	1289.27	452.972	453.128	521.242	1260.79	452.972	1329.22	0.248766	1.99732
1197.58	289.099	1341.36	453.361	453.885	591.022	1400.01	453.361	1538.2	1.20175	9.84177
1197.78	288.899	1808.43	453.906	455.553	711.775	1442.03	453.906	1701.54	-0.562004	-5.3441
1197.98	288.699	1669.44	454.501	459.324	902.774	1371.25	454.501	1824.34	0.847726	7.74508
1198.18	288.499	2082	455.232	468.467	1173.24	1213.91	455.232	1945.15	-0.670652	-6.84263
1198.38	288.299	1891.87	456.015	489.865	1508.82	1020.53	456.015	2107.19	1.1069	10.7656
1198.58	288.099	2507.4	456.88	537.999	1856.69	838.172	456.879	2319.1	-0.840865	-9.41506
1198.78	287.899	2281.6	457.685	638.858	2129.15	693.558	457.68	2546.21	1.23874	13.2307
1198.98	287.699	2868.62	458.791	837.158	2238.49	593.41	458.754	2751.59	-0.488592	-5.85151
1199.18	287.499	2654.38	460.014	1194.79	2143.55	531.043	459.775	2950.08	1.28338	14.785
1199.38	287.299	3833.24	462.46	1789.13	1881.02	496.21	461.084	3245.57	-2.12244	-29.3835
1199.58	287.099	4023.52	469.653	2679.37	1537.55	478.824	462.69	3777.32	-0.867888	-12.3098
1199.78	286.899	4812.86	495.642	3866.39	1201.97	471.549	464.62	4641.7	-0.551683	-8.55808
1199.98	286.699	5438.04	589.944	5221.9	929.518	469.548	466.773	5810.59	1.12966	18.6274
1200.18	286.499	6723.42	900.167	6467.43	737.105	470.571	469.53	7166.68	1.20879	22.1632
1200.38	286.299	8129.18	1806.88	7242.66	616.446	473.37	473.005	8720.34	1.46611	29.5579
1200.58	286.099	10787.9	4127.2	7269.9	548.932	477.548	477.428	10991.3	0.437927	10.1708
1200.78	285.899	15623.9	9252.39	6548.67	516.973	483.761	483.725	15350.6	-0.488807	-13.6621
1200.98	285.699	24436	18920.1	5332.98	508.182	493.763	493.752	23773.8	-0.947237	-33.11
1201.18	285.499	37716.8	33821.8	3992.21	515.216	509.365	509.362	37310.5	-0.467796	-20.3146
1201.38	285.299	53392	51397.5	2814.98	533.935	531.717	531.716	53683	0.281635	14.5516
1201.58	285.099	66002	64652.6	1933.73	561.077	560.291	560.291	66026.8	0.0215764	1.23949
1201.78	284.899	65942.6	66132.2	1355.77	591.159	590.898	590.898	66897.3	0.831326	47.7353
1201.98	284.699	55911.2	54852	1013.03	618.408	618.327	618.327	55246.8	-0.628316	-33.221
1202.18	284.499	39797.4	37525.2	828.264	637.997	637.973	637.973	37715.5	-2.33357	-104.096
1202.38	284.299	20043.6	21731.3	733.858	648.585	648.578	648.578	21816.6	2.80033	88.6507
1202.58	284.099	10604.3	11002.1	689.773	653.904	653.902	653.902	11038	0.941779	21.6858
1202.78	283.899	5828.94	5074.32	670.775	656.757	656.757	656.757	5088.34	-2.16907	-37.03
1202.98	283.699	3306.22	2317.15	663.245	658.089	658.089	658.089	2322.31	-3.82627	-49.1956
1203.18	283.499	2410.6	1208.85	660.831	659.073	659.073	659.073	1210.61	-5.46514	-59.9997
1203.38	283.299	1777.54	820.308	660.203	659.637	659.637	659.637	820.873	-5.07383	-47.8333
1203.58	283.099	1240.42	701.736	660.13	659.962	659.962	659.962	701.904	-3.419	-26.9258
1203.78	282.899	1158.32	669.747	660.23	660.183	660.183	660.183	669.794	-3.20965	-24.4262
1203.98	282.699	1276.29	662.383	660.454	660.442	660.442	660.442	662.395	-3.84241	-30.6947
1204.18	282.499	948.632	660.928	660.582	660.579	660.579	660.579	660.931	-2.08871	-14.385
1204.38	282.299	515.23	660.696	660.642	660.641	660.641	660.641	660.697	1.43301	7.27334
1204.58	282.099	800.962	660.706	660.698	660.698	660.698	660.698	660.706	-1.10815	-7.01279
1204.78	281.899	568.26	568.261	568.26	568.26	568.26	568.26	568.261	0	0
1204.98	281.699	532.702	532.702	532.702	532.702	532.702	532.702	532.702	0	0
1205.18	281.499	528.392	528.392	528.392	528.392	528.392	528.392	528.392	0	0
1205.38	281.299	386.676	386.676	386.676	386.676	386.676	386.676	386.676	0	0
1205.58	281.099	585.282	585.282	585.282	585.282	585.282	585.282	585.282	0	0
1205.78	280.899	267.02	267.02	267.02	267.02	267.02	267.02	267.02	0	0
1205.98	280.699	216.878	216.878	216.878	216.878	216.878	216.878	216.878	0	0
1206.18	280.499	390.816	390.816	390.816	390.816	390.816	390.816	390.816	0	0
1206.38	280.299	414.772	414.772	414.772	414.772	414.772	414.772	414.772	0	0
1206.58	280.099	119.056	119.056	119.056	119.056	119.056	119.056	119.056	0	0
1206.78	279.899	291.068	291.068	291.068	291.068	291.068	291.068	291.068	0	0
1206.98	279.699	265.478	265.478	265.478	265.478	265.478	265.478	265.478	0	0
1207.18	279.499	252.39	252.39	252.39	252.39	252.39	252.39	252.39	0	0
1207.38	279.299	335.7	335.7	335.7	335.7	335.7	335.7	335.7	0	0
1207.58	279.099	198.566	198.566	198.566	198.566	198.566	198.566	198.566	0	0
1207.78	278.899	124.902	124.902	124.902	124.902	124.902	124.902	124.902	0	0
1207.98	278.699	279.39	279.39	279.39	279.39	279.39	279.39	279.39	0	0