Folder: stickleback_plastic_degradation/XPS (part 10)

File: 250418_C-3.3.csv
C1s Scan
	Characteristic Energy eV	1486.68	Acquisition Time s	0.05
KE_C1s Scan	BE_C1s Scan	CPS_C1s Scan	C-C/C-H_1_C1s Scan	C-O_2_C1s Scan	C=O_3_C1s Scan	O-C=O_4_C1s Scan	Background_C1s Scan	Envelope_C1s Scan	Normalised_Residual_C1s Scan	Residual_C1s Scan
1189.23	297.447	2047.72	2047.72	2047.72	2047.72	2047.72	2047.72	2047.72	0	0
1189.43	297.247	1727.97	1727.97	1727.97	1727.97	1727.97	1727.97	1727.97	0	0
1189.63	297.047	1732.76	1732.76	1732.76	1732.76	1732.76	1732.76	1732.76	0	0
1189.83	296.847	1770.52	1770.52	1770.52	1770.52	1770.52	1770.52	1770.52	0	0
1190.03	296.647	2096.72	2096.72	2096.72	2096.72	2096.72	2096.72	2096.72	0	0
1190.23	296.447	1688.4	1688.4	1688.4	1688.4	1688.4	1688.4	1688.4	0	0
1190.43	296.247	1738.39	1738.39	1738.39	1738.39	1738.39	1738.39	1738.39	0	0
1190.63	296.047	1664.63	1664.63	1664.63	1664.63	1664.63	1664.63	1664.63	0	0
1190.83	295.847	1795.33	1795.33	1795.33	1795.33	1795.33	1795.33	1795.33	0	0
1191.03	295.647	2050.38	2050.38	2050.38	2050.38	2050.38	2050.38	2050.38	0	0
1191.23	295.447	1257.35	1257.35	1257.35	1257.35	1257.35	1257.35	1257.35	0	0
1191.43	295.247	1621.89	1621.89	1621.89	1621.89	1621.89	1621.89	1621.89	0	0
1191.63	295.047	1959.66	1959.66	1959.66	1959.66	1959.66	1959.66	1959.66	0	0
1191.83	294.847	1752.67	1752.67	1752.67	1752.67	1752.67	1752.67	1752.67	0	0
1192.03	294.647	1711.38	1711.38	1711.38	1711.38	1711.38	1711.38	1711.38	0	0
1192.23	294.447	1794.62	1794.62	1794.62	1794.62	1794.62	1794.62	1794.62	0	0
1192.43	294.247	1511.8	1511.8	1511.8	1511.8	1511.8	1511.8	1511.8	0	0
1192.63	294.047	1548.86	1548.86	1548.86	1548.86	1548.86	1548.86	1548.86	0	0
1192.83	293.847	1687.62	1687.62	1687.62	1687.62	1687.62	1687.62	1687.62	0	0
1193.03	293.647	1497.63	1497.63	1497.63	1497.63	1497.63	1497.63	1497.63	0	0
1193.23	293.447	1477.46	1477.46	1477.46	1477.46	1477.46	1477.46	1477.46	0	0
1193.43	293.247	1687.15	1687.15	1687.15	1687.15	1687.15	1687.15	1687.15	0	0
1193.63	293.047	1599.38	1599.38	1599.38	1599.38	1599.38	1599.38	1599.38	0	0
1193.83	292.847	1620.25	1620.25	1620.25	1620.25	1620.25	1620.25	1620.25	0	0
1194.03	292.647	1368.73	1368.73	1368.73	1368.73	1368.73	1368.73	1368.73	0	0
1194.23	292.447	1441.81	1441.81	1441.81	1441.81	1441.81	1441.81	1441.81	0	0
1194.43	292.247	1477.78	1477.78	1477.78	1477.78	1477.8	1477.78	1477.8	0	0
1194.63	292.047	1473.16	1473.16	1473.16	1473.16	1473.21	1473.16	1473.21	0	0
1194.83	291.847	1285.09	1285.09	1285.09	1285.09	1285.25	1285.09	1285.25	0	0
1195.03	291.647	1148.14	1148.14	1148.14	1148.14	1148.63	1148.14	1148.63	0	0
1195.23	291.447	1452.28	1452.28	1452.28	1452.28	1453.63	1452.28	1453.63	0	0
1195.43	291.247	1528.83	1528.83	1528.83	1528.83	1532.41	1528.83	1532.41	0	0
1195.63	291.047	1463.75	1477.39	1477.39	1477.39	1486.2	1477.39	1486.21	0.131291	1.12319
1195.83	290.847	1508.18	1477.34	1477.34	1477.37	1497.69	1477.34	1497.73	-0.0601854	-0.52264
1196.03	290.647	1561.05	1477.23	1477.23	1477.32	1521.51	1477.23	1521.6	-0.223295	-1.97275
1196.23	290.447	1370.48	1477.09	1477.09	1477.34	1567.21	1477.09	1567.46	1.1898	9.8491
1196.43	290.247	1654.23	1476.74	1476.74	1477.38	1648.21	1476.74	1648.86	-0.0295392	-0.268647
1196.63	290.047	1531.61	1476.33	1476.33	1477.9	1781.35	1476.33	1782.93	1.43594	12.5659
1196.83	289.847	1851.63	1475.92	1475.94	1479.5	1980.16	1475.92	1983.76	0.686617	6.60657
1197.03	289.647	2626.36	1474.65	1474.71	1482.31	2244.97	1474.65	2252.69	-1.63041	-18.6835
1197.23	289.447	2451.56	1473.5	1473.68	1488.84	2553.72	1473.5	2569.24	0.53146	5.88405
1197.43	289.247	3090.1	1471.52	1472.06	1500.29	2849.46	1471.52	2878.76	-0.850105	-10.5668
1197.63	289.047	3065.9	1469.48	1470.99	1519.83	3055.68	1469.48	3107.55	0.168184	2.08233
1197.83	288.847	3786.88	1466.73	1470.74	1548.5	3104.44	1466.73	3190.22	-2.16806	-29.833
1198.03	288.647	3442.82	1464.46	1474.41	1587.05	2978.38	1464.46	3110.92	-1.26485	-16.5951
1198.23	288.447	2931.5	1462.29	1485.54	1630.63	2720.53	1462.28	2912.15	-0.0799086	-0.967439
1198.43	288.247	2390.8	1460.69	1511.64	1670.57	2407.25	1460.66	2668.17	1.26844	13.8684
1198.63	288.047	2364.2	1459.33	1563.78	1695.03	2109.6	1459.2	2450.13	0.395152	4.29626
1198.83	287.847	2694.48	1458.27	1658.91	1695.1	1869.2	1457.8	2308.07	-1.66453	-19.3204
1199.03	287.647	2142.2	1458.51	1818.03	1670.84	1697.83	1456.83	2274.72	0.640236	6.62606
1199.23	287.447	2488.5	1461.05	2058.57	1629.24	1587.24	1455.49	2369.63	-0.532838	-5.94359
1199.43	287.247	2847.22	1471.02	2386.01	1581.89	1521.23	1453.97	2598.23	-1.0434	-12.4493
1199.63	287.047	3076.94	1500.2	2775.35	1538.09	1484	1451.9	2941.93	-0.544231	-6.75037
1199.83	286.847	3507.02	1575.97	3161.09	1502.96	1463.84	1449.43	3355.56	-0.571899	-7.5731
1200.03	286.647	3665.18	1752.79	3446.03	1477.05	1452.25	1446.18	3789.58	0.459462	6.21988
1200.23	286.447	4266.02	2128.9	3538.43	1459.09	1444.88	1442.49	4243.84	-0.0759499	-1.10924
1200.43	286.247	4266.2	2853.76	3406.24	1446.66	1439.21	1438.32	4830.91	1.93326	28.2355
1200.63	286.047	6020.56	4111.65	3091.9	1436.13	1432.51	1432.2	5775.58	-0.705996	-12.2491
1200.83	285.847	7278.66	6055.49	2690.03	1426.52	1424.88	1424.78	7322.58	0.115125	2.19624
1201.03	285.647	10063.6	8660.97	2293.56	1414.37	1413.68	1413.65	9541.64	-1.16345	-26.098
1201.23	285.447	12880.5	11561.9	1962.02	1399.77	1399.5	1399.49	12124.7	-1.48902	-37.7878
1201.43	285.247	14390	13998.3	1715.14	1381.89	1381.79	1381.79	14331.8	-0.108486	-2.90997
1201.63	285.047	15171.8	15090.7	1546.55	1362.71	1362.67	1362.67	15274.6	0.186678	5.14157
1201.83	284.847	14115.7	14374.9	1438.61	1343.98	1343.97	1343.97	14469.6	0.66609	17.6957
1202.03	284.647	11462.4	12149.5	1374.04	1328.37	1328.37	1328.37	12195.1	1.53045	36.6388
1202.23	284.447	9906.14	9248.6	1336.45	1315.78	1315.77	1315.77	9269.28	-1.4308	-31.8431
1202.43	284.247	6508.2	6502.72	1316.16	1307.39	1307.39	1307.39	6511.49	0.00910863	0.164312
1202.63	284.047	4526.62	4377.17	1305.62	1302.12	1302.12	1302.12	4380.67	-0.485078	-7.29766
1202.83	283.847	3211.54	2958.42	1300.32	1299.02	1299.02	1299.02	2959.72	-0.993599	-12.5908
1203.03	283.647	2803.96	2118.3	1297.35	1296.89	1296.89	1296.89	2118.76	-2.89347	-34.2602
1203.23	283.447	2232.46	1670.04	1295.78	1295.63	1295.63	1295.63	1670.19	-2.66094	-28.1133
1203.43	283.247	1600.19	1452.46	1295.01	1294.96	1294.96	1294.96	1452.51	-0.825511	-7.38404
1203.63	283.047	1719.01	1355.54	1294.33	1294.32	1294.32	1294.32	1355.55	-1.9602	-18.1729
1203.83	282.847	1623.78	1315.95	1293.96	1293.95	1293.95	1293.95	1315.95	-1.70817	-15.3915
1204.03	282.647	1375.84	1301.01	1293.71	1293.7	1293.7	1293.7	1301.01	-0.451108	-3.74153
1204.23	282.447	1636.37	1295.46	1293.22	1293.22	1293.22	1293.22	1295.46	-1.88445	-17.0456
1204.43	282.247	1509.14	1293.61	1292.97	1292.97	1292.97	1292.97	1293.61	-1.2406	-10.7766
1204.63	282.047	1403.08	1292.9	1292.74	1292.74	1292.74	1292.74	1292.9	-0.657713	-5.50887
1204.83	281.847	1259.89	1292.63	1292.59	1292.59	1292.59	1292.59	1292.63	0.206213	1.6367
1205.03	281.647	1258.17	1292.49	1292.49	1292.49	1292.49	1292.49	1292.49	0.216383	1.71624
1205.23	281.447	1273.91	1292.34	1292.34	1292.34	1292.34	1292.34	1292.34	0.115471	0.921568
1205.43	281.247	1156.58	1292.22	1292.22	1292.22	1292.22	1292.22	1292.22	0.891815	6.78184
1205.63	281.047	1285.71	1292.03	1292.03	1292.03	1292.03	1292.03	1292.03	0.0393849	0.315782
1205.83	280.847	1343.44	1291.85	1291.85	1291.85	1291.85	1291.85	1291.85	-0.314746	-2.57961
1206.03	280.647	1243.66	1243.66	1243.66	1243.66	1243.66	1243.66	1243.66	0	0
1206.23	280.447	1167.4	1167.4	1167.4	1167.4	1167.4	1167.4	1167.4	0	0
1206.43	280.247	1099.13	1099.13	1099.13	1099.13	1099.13	1099.13	1099.13	0	0
1206.63	280.047	1321.08	1321.08	1321.08	1321.08	1321.08	1321.08	1321.08	0	0
1206.83	279.847	1376.03	1376.03	1376.03	1376.03	1376.03	1376.03	1376.03	0	0
1207.03	279.647	1133.15	1133.15	1133.15	1133.15	1133.15	1133.15	1133.15	0	0
1207.23	279.447	1172.35	1172.35	1172.35	1172.35	1172.35	1172.35	1172.35	0	0
1207.43	279.247	1218.71	1218.71	1218.71	1218.71	1218.71	1218.71	1218.71	0	0
1207.63	279.047	1037.72	1037.72	1037.72	1037.72	1037.72	1037.72	1037.72	0	0
1207.83	278.847	1125.41	1125.41	1125.41	1125.41	1125.41	1125.41	1125.41	0	0
1208.03	278.647	1182.72	1182.72	1182.72	1182.72	1182.72	1182.72	1182.72	0	0
1208.23	278.447	1210.53	1210.53	1210.53	1210.53	1210.53	1210.53	1210.53	0	0

File: XPS_Chemical_Composition.csv
Sample,Chemical composition (%),,,
,C-C/C-H,C-O,C=O,O-C=O
241019 C-1.1,83.72,10.68,1.55,4.05
241019 C-1.2,78.61,16.12,3.61,1.66
241019 C-1.3,79.82,10.65,1.1,8.43
241019 C-2.1,77.34,11.72,2.79,8.15
241019 C-2.2,85.79,9.46,2.65,2.1
241019 C-2.3,81.62,7.96,2.27,8.14
241019 C-3.1,83.73,11.09,3.09,2.09
241019 C-3.2,85.72,9.81,2.69,1.78
241019 C-3.3,86.07,9.96,2.51,1.47
241019 195-1.1,63.64,23.68,10.25,2.43
241019 195-1.2,60.83,26.75,9.46,2.95
241019 195-1.3,58.73,28.31,9.88,3.08
241019 195-2.1,66.23,22.36,9.88,1.54
241019 195-2.2,68.87,21.35,7.33,2.45
241019 195-2.3,63.81,24.8,9.62,1.77
241019 195-3.1,79.47,13.12,4.8,2.6
241019 195-3.2,81.01,12.6,3.8,2.59
241019 195-3.3,82.82,11.62,3.86,1.7
241019 191x195-1.1,84.89,10.73,3.5,0.89
241019 191x195-1.2,83.95,8.98,3.88,3.19
241019 191x195-1.3,82.52,12.16,4.03,1.29
241019 191x195-2.1,82.79,12.37,2.91,1.93
241019 191x195-2.2,79.24,13.97,4.98,1.8
241019 191x195-2.3,83.16,11.43,3.72,1.68
241019 191x195-3.1,83.49,11.75,3.09,1.66
241019 191x195-3.2,83.7,11.63,3.01,1.67
241019 191x195-3.3,81.39,13.45,2.93,2.23
250418 C-1.1,84.58,10.77,2.76,1.9
250418 C-1.2,80.33,13.15,3.99,2.53
250418 C-1.3,72.91,17.42,7.15,2.52
250418 C-2.1,86.06,10.24,2.35,1.35
250418 C-2.2,75.08,12.9,1.42,10.6
250418 C-2.3,76.84,10.67,2.14,10.35
250418 C-3.1,86.6,9.51,1.8,2.09
250418 C-3.2,87.59,9.09,2.25,1.07
250418 C-3.3,75.63,12.85,1.47,10.05
250418 195-1.1,73.22,14.78,1.93,10.07
250418 195-1.2,67.66,27.07,1.11,4.16
250418 195-1.3,76.98,12.29,0.9,9.83
250418 195-2.1,69.97,19.19,5.05,5.78
250418 195-2.2,73.78,16.84,8.44,0.95
250418 195-2.3,75.09,15.59,7.8,1.51
250418 195-3.1,76.47,13.02,1.59,8.92
250418 195-3.2,79.02,10.28,3.63,7.07
250418 195-3.3,79.02,11.24,1.21,8.53
250418 191x195-1.1,73.77,14.78,1.36,10.09
250418 191x195-1.2,75.1,13.68,0.8,10.42
250418 191x195-1.3,80.56,9.6,1.74,8.11
250418 191x195-2.1,73.97,16.15,1.55,8.34
250418 191x195-2.2,78.86,9.58,2.39,9.17
250418 191x195-2.3,70.06,18.72,1.49,9.73
250418 191x195-3.1,74.13,15.22,3.65,7.01
250418 191x195-3.2,75.52,14.12,1.35,9.02
250418 191x195-3.3,73.42,14.01,2.78,9.79