Folder: stickleback_plastic_degradation/XPS (part 3)

File: 241019_195-3.1.csv
C1s Scan
	Characteristic Energy eV	1486.68	Acquisition Time s	0.05
KE_C1s Scan	BE_C1s Scan	CPS_C1s Scan	C-C/C-H_1_C1s Scan	C-O_2_C1s Scan	C=O_3_C1s Scan	O-C=O_4_C1s Scan	Background_C1s Scan	Envelope_C1s Scan	Normalised_Residual_C1s Scan	Residual_C1s Scan
1189.06	297.621	1841.87	1841.87	1841.87	1841.87	1841.87	1841.87	1841.87	0	0
1189.26	297.421	2018.28	2018.28	2018.28	2018.28	2018.28	2018.28	2018.28	0	0
1189.46	297.221	2078.76	2078.76	2078.76	2078.76	2078.76	2078.76	2078.76	0	0
1189.66	297.021	1920.14	1920.14	1920.14	1920.14	1920.14	1920.14	1920.14	0	0
1189.86	296.821	2143.62	2143.62	2143.62	2143.62	2143.62	2143.62	2143.62	0	0
1190.06	296.621	1676.39	1676.39	1676.39	1676.39	1676.39	1676.39	1676.39	0	0
1190.26	296.421	1838.96	1838.96	1838.96	1838.96	1838.96	1838.96	1838.96	0	0
1190.46	296.221	1613.85	1613.85	1613.85	1613.85	1613.85	1613.85	1613.85	0	0
1190.66	296.021	1435.74	1435.74	1435.74	1435.74	1435.74	1435.74	1435.74	0	0
1190.86	295.821	1863.01	1863.01	1863.01	1863.01	1863.01	1863.01	1863.01	0	0
1191.06	295.621	1506.15	1506.15	1506.15	1506.15	1506.15	1506.15	1506.15	0	0
1191.26	295.421	1481.89	1481.89	1481.89	1481.89	1481.89	1481.89	1481.89	0	0
1191.46	295.221	1458.88	1458.88	1458.88	1458.88	1458.88	1458.88	1458.88	0	0
1191.66	295.021	1233.62	1233.62	1233.62	1233.62	1233.62	1233.62	1233.62	0	0
1191.86	294.821	1388.81	1388.81	1388.81	1388.81	1388.81	1388.81	1388.81	0	0
1192.06	294.621	1081.32	1081.32	1081.32	1081.32	1081.32	1081.32	1081.32	0	0
1192.26	294.421	1230.93	1230.93	1230.93	1230.93	1230.93	1230.93	1230.93	0	0
1192.46	294.221	1111.59	1111.59	1111.59	1111.59	1111.59	1111.59	1111.59	0	0
1192.66	294.021	888.898	888.898	888.898	888.898	888.898	888.898	888.898	0	0
1192.86	293.821	881.538	881.538	881.538	881.538	881.538	881.538	881.538	0	0
1193.06	293.621	967.582	967.582	967.582	967.582	967.582	967.582	967.582	0	0
1193.26	293.421	719.174	719.174	719.174	719.174	719.174	719.174	719.174	0	0
1193.46	293.221	1048.83	1048.83	1048.83	1048.83	1048.83	1048.83	1048.83	0	0
1193.66	293.021	940.884	940.884	940.884	940.884	940.884	940.884	940.884	0	0
1193.86	292.821	593.42	593.42	593.42	593.42	593.42	593.42	593.42	0	0
1194.06	292.621	565.394	565.394	565.394	565.394	565.394	565.394	565.394	0	0
1194.26	292.421	543.856	543.856	543.856	543.856	543.857	543.856	543.857	0	0
1194.46	292.221	528.22	528.22	528.22	528.22	528.224	528.22	528.224	0	0
1194.66	292.021	562.442	562.442	562.442	562.442	562.458	562.442	562.458	0	0
1194.86	291.821	690.042	690.042	690.042	690.042	690.097	690.042	690.097	0	0
1195.06	291.621	587.758	587.758	587.758	587.758	587.935	587.758	587.936	0	0
1195.26	291.421	618.28	618.28	618.28	618.281	618.812	618.28	618.814	0	0
1195.46	291.221	678.908	678.908	678.908	678.914	680.399	678.908	680.405	0	0
1195.66	291.021	483.78	534.225	534.225	534.246	538.134	534.225	538.155	0.55279	2.71875
1195.86	290.821	519.33	534.242	534.242	534.315	543.813	534.242	543.887	0.240952	1.22783
1196.06	290.621	551.564	534.252	534.252	534.492	556.16	534.252	556.4	0.0460477	0.241819
1196.26	290.421	720.598	534.311	534.311	535.045	581.11	534.311	581.844	-1.1558	-6.93769
1196.46	290.221	683.994	534.332	534.332	536.431	627.55	534.332	629.649	-0.464641	-2.71724
1196.66	290.021	642.524	534.361	534.362	539.956	707.023	534.361	712.62	0.618352	3.50482
1196.86	289.821	771.174	534.406	534.412	548.373	830.659	534.406	844.631	0.591486	3.67287
1197.06	289.621	1148.74	534.543	534.565	567.079	1002.74	534.543	1035.29	-0.748462	-5.67239
1197.26	289.421	1431.61	534.77	534.851	605.611	1210.95	534.77	1281.87	-0.884902	-7.48672
1197.46	289.221	1332.96	534.995	535.274	678.776	1419.21	534.995	1563.27	1.41056	11.5155
1197.66	289.021	1318.55	535.263	536.157	806.958	1572.4	535.263	1844.99	3.24179	26.3219
1197.86	288.821	2172.28	535.68	538.365	1011.75	1619.14	535.68	2097.9	-0.356854	-3.71906
1198.06	288.621	2396.96	536.175	543.695	1305.9	1542.35	536.175	2319.6	-0.353334	-3.86812
1198.26	288.421	2621.18	536.694	556.409	1676.64	1370.04	536.694	2529.7	-0.399543	-4.57401
1198.46	288.221	2564.44	537.29	585.549	2069.78	1157.85	537.289	2738.6	0.769036	8.70819
1198.66	288.021	3073.64	537.946	648.404	2390.32	957.405	537.943	2920.24	-0.6187	-7.66993
1198.86	287.821	2950.36	538.6	774.507	2535.95	798.213	538.584	3031.51	0.334076	4.05758
1199.06	287.621	2996.06	539.289	1009.09	2453.35	687.512	539.188	3071.68	0.308912	3.7809
1199.26	287.421	3153.28	540.425	1410.1	2173.88	618.383	539.855	3123.22	-0.119681	-1.50276
1199.46	287.221	3202.12	543.453	2033.62	1791.54	579.332	540.596	3326.15	0.490115	6.20157
1199.66	287.021	4291.12	554.211	2900.7	1408.5	559.294	541.5	3798.21	-1.68256	-24.6457
1199.86	286.821	5082.26	592.884	3949.34	1091.74	550.216	542.567	4556.47	-1.64917	-26.2893
1200.06	286.621	5235.22	721.44	4998.03	864.086	546.881	543.816	5498.98	0.815142	13.1882
1200.26	286.421	6703.76	1105.07	5769.01	718.493	546.548	545.397	6502.93	-0.548471	-10.0415
1200.46	286.221	7264.78	2114.06	6003.12	634.007	547.478	547.075	7657.44	1.03013	19.633
1200.66	286.021	9474.96	4439.85	5615.2	590.05	549.438	549.306	9546.62	0.164609	3.58284
1200.86	285.821	14310.1	9076.46	4747.57	570.292	552.529	552.489	13289.4	-1.90798	-51.0364
1201.06	285.621	20073	16885.5	3680.81	564.636	557.366	557.354	20016.2	-0.0896464	-2.84004
1201.26	285.421	29132.6	27502.2	2675.19	567.024	564.25	564.247	29615.9	0.63314	24.1643
1201.46	285.221	38575.8	38050.1	1880.52	575.063	574.071	574.071	39357.6	0.890027	39.0882
1201.66	285.021	44864.6	43692.7	1331.85	585.918	585.588	585.588	44439.3	-0.449021	-21.2669
1201.86	284.821	42741.8	41159.2	992.089	597.119	597.016	597.016	41554.4	-1.28424	-59.3688
1202.06	284.621	33107.4	31975.5	801.016	606.201	606.171	606.171	32170.4	-1.15151	-46.8508
1202.26	284.421	21517.4	20901.4	701.829	612.332	612.324	612.324	20990.9	-0.802583	-26.3251
1202.46	284.221	11703.6	11830.2	654.247	615.784	615.782	615.782	11868.7	0.341181	8.25334
1202.66	284.021	5789.74	6006.94	632.852	617.442	617.442	617.442	6022.35	0.683583	11.6307
1202.86	283.821	3423.48	2896.19	624.152	618.364	618.364	618.364	2901.98	-1.99299	-26.075
1203.06	283.621	2204.04	1470.94	620.912	618.888	618.888	618.888	1472.96	-3.48207	-36.5538
1203.26	283.421	1364.23	902.769	619.857	619.193	619.193	619.193	903.434	-2.78965	-23.0398
1203.46	283.221	1222.33	703.53	619.562	619.359	619.359	619.359	703.733	-3.31681	-25.9299
1203.66	283.021	925.826	641.71	619.527	619.469	619.469	619.469	641.769	-2.0875	-14.2029
1203.86	282.821	1034.92	624.795	619.583	619.567	619.567	619.567	624.811	-2.85057	-20.5055
1204.06	282.621	667.154	620.693	619.605	619.602	619.602	619.602	620.697	-0.402183	-2.32285
1204.26	282.421	705.43	619.818	619.616	619.615	619.615	619.615	619.818	-0.72076	-4.28058
1204.46	282.221	651.846	619.682	619.649	619.649	619.649	619.649	619.683	-0.281693	-1.60817
1204.66	282.021	852.586	619.693	619.688	619.688	619.688	619.688	619.693	-1.7835	-11.6447
1204.86	281.821	577.18	619.708	619.707	619.707	619.707	619.707	619.708	0.395826	2.1264
1205.06	281.621	597.752	597.752	597.752	597.752	597.752	597.752	597.752	0	0
1205.26	281.421	441.356	441.356	441.356	441.356	441.356	441.356	441.356	0	0
1205.46	281.221	444.972	444.972	444.972	444.972	444.972	444.972	444.972	0	0
1205.66	281.021	445.666	445.666	445.666	445.666	445.666	445.666	445.666	0	0
1205.86	280.821	376.428	376.428	376.428	376.428	376.428	376.428	376.428	0	0
1206.06	280.621	305.9	305.9	305.9	305.9	305.9	305.9	305.9	0	0
1206.26	280.421	498.956	498.956	498.956	498.956	498.956	498.956	498.956	0	0
1206.46	280.221	322.094	322.094	322.094	322.094	322.094	322.094	322.094	0	0
1206.66	280.021	270.936	270.936	270.936	270.936	270.936	270.936	270.936	0	0
1206.86	279.821	295.994	295.994	295.994	295.994	295.994	295.994	295.994	0	0
1207.06	279.621	283.372	283.372	283.372	283.372	283.372	283.372	283.372	0	0
1207.26	279.421	293.14	293.14	293.14	293.14	293.14	293.14	293.14	0	0
1207.46	279.221	355.19	355.19	355.19	355.19	355.19	355.19	355.19	0	0
1207.66	279.021	446.494	446.494	446.494	446.494	446.494	446.494	446.494	0	0
1207.86	278.821	374.054	374.054	374.054	374.054	374.054	374.054	374.054	0	0
1208.06	278.621	253.012	253.012	253.012	253.012	253.012	253.012	253.012	0	0

File: 241019_C-1.2.csv
C1s Scan
	Characteristic Energy eV	1486.68	Acquisition Time s	0.05
KE_C1s Scan	BE_C1s Scan	CPS_C1s Scan	C-C/C-H_1_C1s Scan	C-O_2_C1s Scan	C=O_3_C1s Scan	O-C=O_4_C1s Scan	Background_C1s Scan	Envelope_C1s Scan	Normalised_Residual_C1s Scan	Residual_C1s Scan
1188.8	297.882	1684.6	1684.6	1684.6	1684.6	1684.6	1684.6	1684.6	0	0
1189	297.682	1708.33	1708.33	1708.33	1708.33	1708.33	1708.33	1708.33	0	0
1189.2	297.482	1441.72	1441.72	1441.72	1441.72	1441.72	1441.72	1441.72	0	0
1189.4	297.282	1226.32	1226.32	1226.32	1226.32	1226.32	1226.32	1226.32	0	0
1189.6	297.082	1477.35	1477.35	1477.35	1477.35	1477.35	1477.35	1477.35	0	0
1189.8	296.882	1224.72	1224.72	1224.72	1224.72	1224.72	1224.72	1224.72	0	0
1190	296.682	1038.92	1038.92	1038.92	1038.92	1038.92	1038.92	1038.92	0	0
1190.2	296.482	1142.28	1142.28	1142.28	1142.28	1142.28	1142.28	1142.28	0	0
1190.4	296.282	1173.35	1173.35	1173.35	1173.35	1173.35	1173.35	1173.35	0	0
1190.6	296.082	1077.69	1077.69	1077.69	1077.69	1077.69	1077.69	1077.69	0	0
1190.8	295.882	683.684	683.684	683.684	683.684	683.684	683.684	683.684	0	0
1191	295.682	810.162	810.162	810.162	810.162	810.162	810.162	810.162	0	0
1191.2	295.482	840.078	840.078	840.078	840.078	840.078	840.078	840.078	0	0
1191.4	295.282	1094.63	1094.63	1094.63	1094.63	1094.63	1094.63	1094.63	0	0
1191.6	295.082	802.228	802.228	802.228	802.228	802.228	802.228	802.228	0	0
1191.8	294.882	700.894	700.894	700.894	700.894	700.894	700.894	700.894	0	0
1192	294.682	936.002	936.002	936.002	936.002	936.002	936.002	936.002	0	0
1192.2	294.482	607.462	607.462	607.462	607.462	607.462	607.462	607.462	0	0
1192.4	294.282	654.492	654.492	654.492	654.492	654.492	654.492	654.492	0	0
1192.6	294.082	680.626	680.626	680.626	680.626	680.626	680.626	680.626	0	0
1192.8	293.882	443.102	443.102	443.102	443.102	443.102	443.102	443.102	0	0
1193	293.682	522.642	522.642	522.642	522.642	522.642	522.642	522.642	0	0
1193.2	293.482	592.206	592.206	592.206	592.206	592.206	592.206	592.206	0	0
1193.4	293.282	498.306	498.306	498.306	498.306	498.306	498.306	498.306	0	0
1193.6	293.082	540.608	540.608	540.608	540.608	540.609	540.608	540.609	0	0
1193.8	292.882	510.176	510.176	510.176	510.176	510.179	510.176	510.179	0	0
1194	292.682	417.472	417.472	417.472	417.472	417.481	417.472	417.481	0	0
1194.2	292.482	335.268	335.268	335.268	335.268	335.295	335.268	335.295	0	0
1194.4	292.282	409.758	409.758	409.758	409.758	409.832	409.758	409.832	0	0
1194.6	292.082	175.694	175.694	175.694	175.695	175.887	175.694	175.888	0	0
1194.8	291.882	142.25	142.25	142.25	142.252	142.73	142.25	142.732	0	0
1195	291.682	240.766	240.766	240.766	240.775	241.898	240.766	241.907	0	0
1195.2	291.482	265.522	265.522	265.522	265.549	268.054	265.522	268.081	0	0
1195.4	291.282	251.72	251.72	251.72	251.797	257.094	251.72	257.172	0	0
1195.6	291.082	252.028	301.917	301.917	302.128	312.736	301.917	312.947	0.858048	3.04594
1195.8	290.882	186.634	301.916	301.916	302.457	322.603	301.916	323.145	2.23437	6.82553
1196	290.682	340.378	301.915	301.915	303.238	339.411	301.915	340.735	0.00432676	0.0178496
1196.2	290.482	309.862	301.915	301.916	304.984	366.151	301.915	369.223	0.754049	2.96803
1196.4	290.282	326.354	301.913	301.918	308.696	405.682	301.913	412.471	1.06593	4.30583
1196.6	290.082	476.512	301.91	301.927	316.123	459.441	301.91	473.671	-0.0291044	-0.142063
1196.8	289.882	456.58	301.906	301.959	330.144	525.624	301.906	553.916	1.01859	4.86679
1197	289.682	730.574	301.897	302.055	355.071	597.247	301.897	650.579	-0.661785	-3.99976
1197.2	289.482	882.716	301.884	302.329	396.707	661.962	301.884	757.229	-0.94444	-6.27437
1197.4	289.282	786.468	301.871	303.065	461.943	704.967	301.871	866.232	0.635993	3.98821
1197.6	289.082	1047.21	301.855	304.894	556.369	714.606	301.855	972.159	-0.518564	-3.75235
1197.8	288.882	1120.06	301.838	309.172	681.578	687.982	301.838	1075.06	-0.300652	-2.24993
1198	288.682	990.608	301.818	318.614	830.864	632.585	301.818	1178.43	1.33437	9.39099
1198.2	288.482	1229.31	301.797	338.338	985.942	562.703	301.797	1283.39	0.34487	2.70378
1198.4	288.282	1451.87	301.771	377.415	1117.37	492.457	301.77	1383.71	-0.400002	-3.40809
1198.6	288.082	1608.02	301.748	450.181	1193.2	431.662	301.742	1471.57	-0.76087	-6.82245
1198.8	287.882	1402.02	301.751	577.668	1192.39	384.665	301.715	1551.33	0.891609	7.46513
1199	287.682	1812.23	301.87	787.149	1115.17	351.605	301.68	1650.76	-0.848146	-8.0735
1199.2	287.482	1883.27	302.55	1108.41	982.981	330.028	301.646	1819.03	-0.331014	-3.21209
1199.4	287.282	2173.72	305.479	1565.35	827.711	316.873	301.605	2110.6	-0.302741	-3.15615
1199.6	287.082	2500.08	316.608	2156.64	678.673	309.337	301.556	2556.59	0.252726	2.82561
1199.8	286.882	3377.06	354.251	2840.1	553.946	305.244	301.484	3149.08	-0.877214	-11.3988
1200	286.682	3399.66	468.043	3520.36	460.03	303.136	301.408	3847.35	1.71689	22.3844
1200.2	286.482	3990.4	775.584	4059.95	395.202	302.071	301.317	4628.85	2.25999	31.9227
1200.4	286.282	5331.7	1518.79	4319.49	353.751	301.515	301.203	5589.94	0.790811	12.9119
1200.6	286.082	7151.52	3113.99	4226.16	328.93	301.169	301.047	7067.11	-0.223195	-4.22055
1200.8	285.882	9592.06	6107.4	3807.78	314.864	300.885	300.839	9628.41	0.0830021	1.81773
1201	285.682	14617.6	10925	3177.59	307.215	300.542	300.526	13808.8	-1.49588	-40.4408
1201.2	285.482	19689.2	17317.3	2479.75	303.137	300.116	300.111	19499.9	-0.301557	-9.46167
1201.4	285.282	25518.8	23752.1	1834.6	300.843	299.545	299.543	25288.5	-0.32242	-11.5169
1201.6	285.082	28547	27633	1310.21	299.425	298.893	298.893	28644.9	0.129524	4.89345
1201.8	284.882	28373.2	26971.8	924.336	298.423	298.217	298.217	27598.1	-1.02894	-38.7552
1202	284.682	22368.8	22126.7	663.167	297.722	297.646	297.646	22492.3	0.184686	6.17646
1202.2	284.482	15705.5	15468.7	498.913	297.258	297.231	297.231	15670.5	-0.0624947	-1.75127
1202.4	284.282	9070.94	9416.69	402.493	297.002	296.993	296.993	9522.2	1.05946	22.563
1202.6	284.082	5267.22	5113.62	349.26	296.853	296.85	296.85	5166.03	-0.311756	-5.0593
1202.8	283.882	2421.5	2557.43	321.485	296.787	296.787	296.787	2582.13	0.729921	8.03162
1203	283.682	1835.57	1246.96	307.789	296.749	296.748	296.748	1258	-3.01443	-28.8785
1203.2	283.482	870.344	656.764	301.414	296.733	296.733	296.733	661.445	-1.58334	-10.4449
1203.4	283.282	802.12	419.62	298.606	296.721	296.721	296.721	421.505	-3.00505	-19.0308
1203.6	283.082	733.986	334.511	297.433	296.71	296.71	296.71	335.235	-3.29111	-19.9376
1203.8	282.882	643.962	307.172	296.964	296.701	296.701	296.701	307.435	-2.96534	-16.8263
1204	282.682	451.462	299.328	296.788	296.697	296.697	296.697	299.419	-1.60008	-7.60215
1204.2	282.482	447.94	297.289	296.722	296.693	296.693	296.693	297.318	-1.59134	-7.53109
1204.4	282.282	429.288	296.812	296.7	296.69	296.69	296.69	296.821	-1.42961	-6.62336
1204.6	282.082	327.744	296.712	296.692	296.689	296.689	296.689	296.714	-0.38326	-1.55148
1204.8	281.882	321.08	296.692	296.689	296.689	296.689	296.689	296.693	-0.304324	-1.21935
1205	281.682	319.88	319.881	319.88	319.88	319.88	319.88	319.881	0	0
1205.2	281.482	272.384	272.384	272.384	272.384	272.384	272.384	272.384	0	0
1205.4	281.282	190.682	190.682	190.682	190.682	190.682	190.682	190.682	0	0
1205.6	281.082	161.461	161.461	161.461	161.461	161.461	161.461	161.461	0	0
1205.8	280.882	183.133	183.133	183.133	183.133	183.133	183.133	183.133	0	0
1206	280.682	209.3	209.3	209.3	209.3	209.3	209.3	209.3	0	0
1206.2	280.482	122.767	122.767	122.767	122.767	122.767	122.767	122.767	0	0
1206.4	280.282	163.923	163.923	163.923	163.923	163.923	163.923	163.923	0	0
1206.6	280.082	166.801	166.801	166.801	166.801	166.801	166.801	166.801	0	0
1206.8	279.882	142.393	142.393	142.393	142.393	142.393	142.393	142.393	0	0
1207	279.682	171.157	171.157	171.157	171.157	171.157	171.157	171.157	0	0
1207.2	279.482	62.3512	62.3512	62.3512	62.3512	62.3512	62.3512	62.3512	0	0
1207.4	279.282	150.011	150.011	150.011	150.011	150.011	150.011	150.011	0	0
1207.6	279.082	133.912	133.912	133.912	133.912	133.912	133.912	133.912	0	0
1207.8	278.882	91.6256	91.6256	91.6256	91.6256	91.6256	91.6256	91.6256	0	0

File: 241019_C-1.3.csv
C1s Scan
	Characteristic Energy eV	1486.68	Acquisition Time s	0.05
KE_C1s Scan	BE_C1s Scan	CPS_C1s Scan	C-C/C-H_1_C1s Scan	C-O_2_C1s Scan	C=O_3_C1s Scan	O-C=O_4_C1s Scan	Background_C1s Scan	Envelope_C1s Scan	Normalised_Residual_C1s Scan	Residual_C1s Scan
1189.21	297.467	2360.72	2360.72	2360.72	2360.72	2360.72	2360.72	2360.72	0	0
1189.41	297.267	2505.42	2505.42	2505.42	2505.42	2505.42	2505.42	2505.42	0	0
1189.61	297.067	2442.72	2442.72	2442.72	2442.72	2442.72	2442.72	2442.72	0	0
1189.81	296.867	2222.06	2222.06	2222.06	2222.06	2222.06	2222.06	2222.06	0	0
1190.01	296.667	2074.34	2074.34	2074.34	2074.34	2074.34	2074.34	2074.34	0	0
1190.21	296.467	2432.36	2432.36	2432.36	2432.36	2432.36	2432.36	2432.36	0	0
1190.41	296.267	2491.74	2491.74	2491.74	2491.74	2491.74	2491.74	2491.74	0	0
1190.61	296.067	2184.7	2184.7	2184.7	2184.7	2184.7	2184.7	2184.7	0	0
1190.81	295.867	1913.2	1913.2	1913.2	1913.2	1913.2	1913.2	1913.2	0	0
1191.01	295.667	1923.18	1923.18	1923.18	1923.18	1923.18	1923.18	1923.18	0	0
1191.21	295.467	1770.19	1770.19	1770.19	1770.19	1770.19	1770.19	1770.19	0	0
1191.41	295.267	1781.99	1781.99	1781.99	1781.99	1781.99	1781.99	1781.99	0	0
1191.61	295.067	2006.56	2006.56	2006.56	2006.56	2006.56	2006.56	2006.56	0	0
1191.81	294.867	1867.27	1867.27	1867.27	1867.27	1867.27	1867.27	1867.27	0	0
1192.01	294.667	2067.76	2067.76	2067.76	2067.76	2067.76	2067.76	2067.76	0	0
1192.21	294.467	1971.93	1971.93	1971.93	1971.93	1971.93	1971.93	1971.93	0	0
1192.41	294.267	2172.28	2172.28	2172.28	2172.28	2172.28	2172.28	2172.28	0	0
1192.61	294.067	1625.57	1625.57	1625.57	1625.57	1625.57	1625.57	1625.57	0	0
1192.81	293.867	1572.87	1572.87	1572.87	1572.87	1572.87	1572.87	1572.87	0	0
1193.01	293.667	1749.75	1749.75	1749.75	1749.75	1749.75	1749.75	1749.75	0	0
1193.21	293.467	1736.47	1736.47	1736.47	1736.47	1736.47	1736.47	1736.47	0	0
1193.41	293.267	1589.5	1589.5	1589.5	1589.5	1589.5	1589.5	1589.5	0	0
1193.61	293.067	1321.83	1321.83	1321.83	1321.83	1321.83	1321.83	1321.83	0	0
1193.81	292.867	1656.22	1656.22	1656.22	1656.22	1656.22	1656.22	1656.22	0	0
1194.01	292.667	1704.11	1704.11	1704.11	1704.11	1704.11	1704.11	1704.11	0	0
1194.21	292.467	1395.74	1395.74	1395.74	1395.74	1395.74	1395.74	1395.74	0	0
1194.41	292.267	1421.3	1421.3	1421.3	1421.3	1421.3	1421.3	1421.3	0	0
1194.61	292.067	1849.82	1849.82	1849.82	1849.82	1849.85	1849.82	1849.85	0	0
1194.81	291.867	1419.56	1505.2	1505.2	1505.2	1505.32	1505.2	1505.32	0.508948	4.28781
1195.01	291.667	1353.53	1505.19	1505.19	1505.19	1505.56	1505.19	1505.56	0.924017	7.60148
1195.21	291.467	1482.62	1505.18	1505.18	1505.18	1506.28	1505.18	1506.28	0.137412	1.18311
1195.41	291.267	1191.72	1505.14	1505.14	1505.14	1508.23	1505.14	1508.23	2.05014	15.8254
1195.61	291.067	1533.74	1505.14	1505.14	1505.14	1513.24	1505.14	1513.24	-0.117052	-1.02504
1195.81	290.867	1646.53	1505.1	1505.1	1505.1	1525	1505.1	1525.01	-0.669637	-6.07588
1196.01	290.667	1521.59	1505.08	1505.08	1505.1	1550.79	1505.08	1550.81	0.167516	1.46113
1196.21	290.467	1236.11	1505.05	1505.05	1505.11	1603.09	1505.05	1603.15	2.33441	18.3523
1196.41	290.267	1745.29	1505.02	1505.02	1505.2	1701.31	1505.02	1701.5	-0.234388	-2.18955
1196.61	290.067	1793.7	1504.99	1504.99	1505.5	1870.47	1504.99	1870.99	0.408094	3.86473
1196.81	289.867	2068.88	1504.92	1504.93	1506.25	2136.57	1504.92	2137.91	0.339354	3.45148
1197.01	289.667	2743.38	1504.76	1504.79	1507.98	2510.81	1504.76	2514.06	-0.97901	-11.4661
1197.21	289.467	2977.28	1504.5	1504.6	1511.76	2972.07	1504.5	2979.44	0.00884301	0.107893
1197.41	289.267	3414.16	1504.17	1504.5	1519.51	3446.06	1504.17	3461.74	0.182076	2.37891
1197.61	289.067	3622.08	1503.77	1504.8	1533.9	3812.01	1503.77	3843.17	0.821442	11.0546
1197.81	288.867	3983.92	1503.32	1506.26	1558.48	3952.58	1503.32	4010.68	0.0948151	1.33819
1198.01	288.667	4564.28	1502.81	1510.68	1596.18	3812.62	1502.8	3913.88	-2.15269	-32.5201
1198.21	288.467	3582.5	1502.38	1522.1	1648.09	3446.79	1502.38	3612.23	0.111053	1.48631
1198.41	288.267	3196.44	1502.06	1548.17	1709.62	2972.43	1502.04	3226.15	0.117497	1.48541
1198.61	288.067	2463.86	1501.87	1602.71	1769.39	2510.36	1501.8	2878.94	1.86986	20.7541
1198.81	287.867	2330.9	1501.96	1707.43	1811.06	2135.12	1501.63	2650.7	1.48116	15.99
1199.01	287.667	2854.18	1502.75	1892.89	1820.08	1868.18	1501.41	2579.66	-1.149	-13.726
1199.21	287.467	2664.66	1506.08	2191.72	1793.29	1698.23	1501.2	2685.74	0.0912929	1.05376
1199.41	287.267	3145.5	1517.35	2627.37	1740.07	1599.39	1500.93	2981.41	-0.654234	-8.20471
1199.61	287.067	3902.56	1551.22	3185.39	1676.85	1546.43	1500.51	3458.37	-1.58995	-22.2097
1199.81	286.867	3788.76	1644.02	3792.8	1618.33	1520.1	1500.1	4074.97	1.03974	14.3106
1200.01	286.667	4880.96	1874.92	4310.93	1572.22	1507.65	1499.51	4767.2	-0.364088	-5.68779
1200.21	286.467	5131.22	2400.19	4577.26	1540.12	1501.93	1498.82	5523.03	1.22307	19.5905
1200.41	286.267	6207.48	3480.91	4499.42	1519.79	1499.1	1498	6505.23	0.845039	14.8874
1200.61	286.067	8171.62	5482.53	4102.15	1507.52	1497.2	1496.83	8098.91	-0.179854	-3.63546
1200.81	285.867	11032.1	8778.87	3523.33	1500.13	1495.34	1495.22	10812	-0.46858	-11.0052
1201.01	285.667	15253.7	13500.1	2921.11	1494.98	1492.91	1492.88	14930.4	-0.585192	-16.1611
1201.21	285.467	19284.3	19151.6	2407.98	1490.55	1489.72	1489.71	20070.7	1.26626	39.3196
1201.41	285.267	25123	24365.8	2029.25	1485.89	1485.57	1485.57	24909.8	-0.300808	-10.6613
1201.61	285.067	26468.6	27261.7	1778.87	1480.99	1480.88	1480.88	27559.8	1.49977	54.5602
1201.81	284.867	27117.8	26565.3	1627.93	1476.05	1476.02	1476.02	26717.3	-0.543881	-20.027
1202.01	284.667	22720	22602	1544.05	1471.84	1471.83	1471.83	22674.3	-0.0678531	-2.28696
1202.21	284.467	17311.7	17014	1500.73	1468.69	1468.68	1468.68	17046.1	-0.451372	-13.2797
1202.41	284.267	10978.3	11587.1	1479.91	1466.61	1466.61	1466.61	11600.4	1.32753	31.1027
1202.61	284.067	8133.96	7368.97	1470.44	1465.28	1465.28	1465.28	7374.12	-1.88388	-37.9918
1202.81	283.867	4478.02	4580.82	1466.55	1464.68	1464.68	1464.68	4582.69	0.349772	5.23375
1203.01	283.667	3509.52	2962.5	1464.9	1464.26	1464.26	1464.26	2963.13	-2.06234	-27.3193
1203.21	283.467	2536.12	2124.27	1464.27	1464.06	1464.06	1464.06	2124.47	-1.82779	-20.5825
1203.41	283.267	2012.9	1730.94	1463.98	1463.92	1463.92	1463.92	1731	-1.40496	-14.0948
1203.61	283.067	1746	1563.03	1463.83	1463.81	1463.81	1463.81	1563.04	-0.97908	-9.148
1203.81	282.867	1853.91	1497.63	1463.76	1463.76	1463.76	1463.76	1497.64	-1.85021	-17.8135
1204.01	282.667	1757	1474.34	1463.71	1463.71	1463.71	1463.71	1474.34	-1.50785	-14.1328
1204.21	282.467	1344.31	1466.75	1463.69	1463.69	1463.69	1463.69	1466.75	0.746763	6.12233
1204.41	282.267	1503.99	1464.48	1463.67	1463.67	1463.67	1463.67	1464.48	-0.227801	-1.97544
1204.61	282.067	1309.54	1463.85	1463.65	1463.65	1463.65	1463.65	1463.85	0.953477	7.71534
1204.81	281.867	1393.24	1463.68	1463.63	1463.63	1463.63	1463.63	1463.68	0.421949	3.52175
1205.01	281.667	1465.25	1463.64	1463.63	1463.63	1463.63	1463.63	1463.64	-0.00944941	-0.080881
1205.21	281.467	1399.75	1463.6	1463.6	1463.6	1463.6	1463.6	1463.6	0.381606	3.19246
1205.41	281.267	1603.52	1463.58	1463.58	1463.58	1463.58	1463.58	1463.58	-0.781429	-6.99699
1205.61	281.067	1288.48	1288.48	1288.48	1288.48	1288.48	1288.48	1288.48	0	0
1205.81	280.867	1287.75	1287.75	1287.75	1287.75	1287.75	1287.75	1287.75	0	0
1206.01	280.667	1447.25	1447.25	1447.25	1447.25	1447.25	1447.25	1447.25	0	0
1206.21	280.467	1534.18	1534.18	1534.18	1534.18	1534.18	1534.18	1534.18	0	0
1206.41	280.267	1284.74	1284.74	1284.74	1284.74	1284.74	1284.74	1284.74	0	0
1206.61	280.067	1010.6	1010.6	1010.6	1010.6	1010.6	1010.6	1010.6	0	0
1206.81	279.867	1313.06	1313.06	1313.06	1313.06	1313.06	1313.06	1313.06	0	0
1207.01	279.667	1349.21	1349.21	1349.21	1349.21	1349.21	1349.21	1349.21	0	0
1207.21	279.467	1099.24	1099.24	1099.24	1099.24	1099.24	1099.24	1099.24	0	0
1207.41	279.267	931.756	931.756	931.756	931.756	931.756	931.756	931.756	0	0
1207.61	279.067	967.094	967.094	967.094	967.094	967.094	967.094	967.094	0	0
1207.81	278.867	1457.15	1457.15	1457.15	1457.15	1457.15	1457.15	1457.15	0	0
1208.01	278.667	1230.23	1230.23	1230.23	1230.23	1230.23	1230.23	1230.23	0	0
1208.21	278.467	1206.35	1206.35	1206.35	1206.35	1206.35	1206.35	1206.35	0	0