Folder: stickleback_plastic_degradation/XPS/XPS (part 7)

File: 250418_191x195-1.3.csv
C1s Scan
	Characteristic Energy eV	1486.68	Acquisition Time s	0.05
KE_C1s Scan	BE_C1s Scan	CPS_C1s Scan	C-C/C-H_1_C1s Scan	C-O_2_C1s Scan	C=O_3_C1s Scan	O-C=O_4_C1s Scan	Background_C1s Scan	Envelope_C1s Scan	Normalised_Residual_C1s Scan	Residual_C1s Scan
1188.97	297.713	2432.44	2432.44	2432.44	2432.44	2432.44	2432.44	2432.44	0	0
1189.17	297.513	2290.1	2290.1	2290.1	2290.1	2290.1	2290.1	2290.1	0	0
1189.37	297.313	2126.38	2126.38	2126.38	2126.38	2126.38	2126.38	2126.38	0	0
1189.57	297.113	2263.34	2263.34	2263.34	2263.34	2263.34	2263.34	2263.34	0	0
1189.77	296.913	1990.17	1990.17	1990.17	1990.17	1990.17	1990.17	1990.17	0	0
1189.97	296.713	2272.2	2272.2	2272.2	2272.2	2272.2	2272.2	2272.2	0	0
1190.17	296.513	1964.63	1964.63	1964.63	1964.63	1964.63	1964.63	1964.63	0	0
1190.37	296.313	1952.78	1952.78	1952.78	1952.78	1952.78	1952.78	1952.78	0	0
1190.57	296.113	1816.44	1816.44	1816.44	1816.44	1816.44	1816.44	1816.44	0	0
1190.77	295.913	1789.81	1789.81	1789.81	1789.81	1789.81	1789.81	1789.81	0	0
1190.97	295.713	1469.28	1469.28	1469.28	1469.28	1469.28	1469.28	1469.28	0	0
1191.17	295.513	2019.36	2019.36	2019.36	2019.36	2019.36	2019.36	2019.36	0	0
1191.37	295.313	1831.28	1831.28	1831.28	1831.28	1831.28	1831.28	1831.28	0	0
1191.57	295.113	1603.45	1603.45	1603.45	1603.45	1603.45	1603.45	1603.45	0	0
1191.77	294.913	2110.64	2110.64	2110.64	2110.64	2110.64	2110.64	2110.64	0	0
1191.97	294.713	1564.61	1564.61	1564.61	1564.61	1564.61	1564.61	1564.61	0	0
1192.17	294.513	1518.72	1518.72	1518.72	1518.72	1518.72	1518.72	1518.72	0	0
1192.37	294.313	1486.99	1486.99	1486.99	1486.99	1486.99	1486.99	1486.99	0	0
1192.57	294.113	1512.14	1512.14	1512.14	1512.14	1512.14	1512.14	1512.14	0	0
1192.77	293.913	1529.18	1529.18	1529.18	1529.18	1529.18	1529.18	1529.18	0	0
1192.97	293.713	1583.01	1583.01	1583.01	1583.01	1583.01	1583.01	1583.01	0	0
1193.17	293.513	1823.54	1823.54	1823.54	1823.54	1823.54	1823.54	1823.54	0	0
1193.37	293.313	1615.58	1615.58	1615.58	1615.58	1615.58	1615.58	1615.58	0	0
1193.57	293.113	1396.04	1396.04	1396.04	1396.04	1396.04	1396.04	1396.04	0	0
1193.77	292.913	1647.52	1647.52	1647.52	1647.52	1647.52	1647.52	1647.52	0	0
1193.97	292.713	1529.39	1529.39	1529.39	1529.39	1529.39	1529.39	1529.39	0	0
1194.17	292.513	1453.41	1453.41	1453.41	1453.41	1453.41	1453.41	1453.41	0	0
1194.37	292.313	1535.11	1535.11	1535.11	1535.11	1535.11	1535.11	1535.11	0	0
1194.57	292.113	1282.01	1282.01	1282.01	1282.01	1282.02	1282.01	1282.02	0	0
1194.77	291.913	1377.43	1377.43	1377.43	1377.43	1377.44	1377.43	1377.44	0	0
1194.97	291.713	1552.73	1552.73	1552.73	1552.73	1552.79	1552.73	1552.79	0	0
1195.17	291.513	1439.95	1439.95	1439.95	1439.95	1440.21	1439.95	1440.21	0	0
1195.37	291.313	1585.54	1585.54	1585.54	1585.54	1586.5	1585.54	1586.5	0	0
1195.57	291.113	1361.54	1361.54	1361.54	1361.54	1364.74	1361.54	1364.74	0	0
1195.77	290.913	1373.12	1376.01	1376.01	1376.01	1385.69	1376.01	1385.69	0.0758261	0.628287
1195.97	290.713	1517.49	1375.96	1375.96	1375.96	1402.78	1375.96	1402.78	-0.65843	-5.73531
1196.17	290.513	1356.67	1375.92	1375.92	1375.92	1443.51	1375.92	1443.52	0.527214	4.3422
1196.37	290.313	1504.45	1375.88	1375.88	1375.91	1530.74	1375.88	1530.77	0.151735	1.31601
1196.57	290.113	1735.23	1375.71	1375.71	1375.83	1697.54	1375.71	1697.66	-0.201642	-1.87821
1196.77	289.913	1910.55	1375.59	1375.59	1376.02	1977.23	1375.59	1977.66	0.343336	3.3557
1196.97	289.713	2363.96	1375.25	1375.25	1376.59	2380.11	1375.25	2381.46	0.0804924	0.875105
1197.17	289.513	2783.36	1374.75	1374.77	1378.61	2852.11	1374.75	2855.99	0.307852	3.63172
1197.37	289.313	3300.66	1373.95	1374.03	1384.05	3257.94	1373.95	3268.13	-0.126603	-1.6264
1197.57	289.113	3114.4	1373.2	1373.55	1397.29	3430.09	1373.2	3454.53	1.36283	17.0065
1197.77	288.913	3901.74	1372.3	1373.58	1424.31	3284.27	1372.3	3337.55	-2.01968	-28.2096
1197.97	288.713	2841.08	1371.7	1375.9	1473.34	2891.31	1371.69	2997.16	0.654767	7.80393
1198.17	288.513	2587.26	1371.23	1383.91	1548.99	2417.53	1371.22	2607.99	0.0911275	1.03647
1198.37	288.313	2284.54	1370.84	1405.53	1646.27	2004.68	1370.8	2314.92	0.142135	1.5191
1198.57	288.113	2514.06	1370.57	1457.28	1742.92	1712.48	1370.39	2172.08	-1.52508	-17.0988
1198.77	287.913	1975.11	1370.83	1567.39	1803.47	1536.4	1370.12	2167.73	0.969127	9.63079
1198.97	287.713	2258.88	1372.34	1775.58	1799.25	1443.02	1369.82	2280.73	0.102806	1.09257
1199.17	287.513	2785.78	1377.69	2120.83	1732.4	1398.62	1369.37	2521.44	-1.11988	-13.2169
1199.37	287.313	3228.14	1394.13	2608.6	1632.96	1379.42	1368.75	2908.88	-1.25647	-15.963
1199.57	287.113	3457.08	1439.58	3167.76	1536.14	1371.56	1368.02	3410.98	-0.175322	-2.30503
1199.77	286.913	4290.28	1553.45	3630.17	1461.92	1368.08	1367.01	3912.6	-1.28933	-18.8839
1199.97	286.713	4303.44	1814.87	3799.06	1414.06	1366.29	1366	4296.3	-0.0243449	-0.357109
1200.17	286.513	4577.94	2362.3	3591.99	1386.71	1364.81	1364.73	4611.61	0.111279	1.68358
1200.37	286.313	5491.38	3405.57	3108.71	1372.37	1363.25	1363.23	5160.2	-0.999323	-16.5589
1200.57	286.113	6744.64	5199.65	2548.03	1364.86	1361.41	1361.41	6389.72	-0.96635	-17.7459
1200.77	285.913	8951.02	7942.62	2068.89	1359.91	1358.72	1358.72	8653.98	-0.702033	-14.8518
1200.97	285.713	11302.2	11577.6	1734.88	1355.54	1355.16	1355.16	11957.6	1.37856	32.7711
1201.17	285.513	16211.4	15558.5	1532.26	1349.75	1349.65	1349.65	15741.2	-0.825842	-23.5121
1201.37	285.313	18765.5	18808.8	1422.52	1342.85	1342.83	1342.83	18888.6	0.200841	6.15202
1201.57	285.113	19079.3	20138.7	1367.48	1335.88	1335.88	1335.88	20170.3	1.76611	54.5486
1201.77	284.913	19695.6	18985.6	1339.87	1328.47	1328.47	1328.47	18997	-1.11315	-34.932
1201.97	284.713	16201.4	15837.7	1326.26	1322.5	1322.5	1322.5	15841.5	-0.632213	-17.9938
1202.17	284.513	11782	11863.2	1318.94	1317.82	1317.82	1317.82	11864.4	0.169757	4.12023
1202.37	284.313	7946.22	8166.42	1315.12	1314.81	1314.81	1314.81	8166.73	0.553138	11.0255
1202.57	284.113	4917.28	5338.29	1313.15	1313.08	1313.08	1313.08	5338.37	1.34275	21.0544
1202.77	283.913	3783.56	3468.66	1312.09	1312.07	1312.07	1312.07	3468.68	-1.14466	-15.7439
1202.97	283.713	2463.76	2371.48	1311.53	1311.52	1311.52	1311.52	2371.48	-0.415716	-4.61404
1203.17	283.513	2035.88	1790.77	1311.09	1311.09	1311.09	1311.09	1790.77	-1.2147	-12.2555
1203.37	283.313	1671.51	1511.16	1310.87	1310.87	1310.87	1310.87	1511.16	-0.876974	-8.01726
1203.57	283.113	1462.88	1388.11	1310.72	1310.72	1310.72	1310.72	1388.11	-0.437149	-3.73869
1203.77	282.913	1762.46	1338.25	1310.6	1310.6	1310.6	1310.6	1338.25	-2.25944	-21.2103
1203.97	282.713	1622.3	1319.62	1310.48	1310.48	1310.48	1310.48	1319.62	-1.68033	-15.1337
1204.17	282.513	1614.71	1313.13	1310.34	1310.34	1310.34	1310.34	1313.13	-1.67816	-15.0787
1204.37	282.313	1395.92	1311.07	1310.28	1310.28	1310.28	1310.28	1311.07	-0.507789	-4.24227
1204.57	282.113	1446.96	1310.4	1310.19	1310.19	1310.19	1310.19	1310.4	-0.802772	-6.8282
1204.77	281.913	1625.17	1310.18	1310.13	1310.13	1310.13	1310.13	1310.18	-1.74721	-15.7499
1204.97	281.713	1261.14	1310.11	1310.1	1310.1	1310.1	1310.1	1310.11	0.308305	2.4482
1205.17	281.513	988.046	1310	1310	1310	1310	1310	1310	2.29032	16.0979
1205.37	281.313	1516.71	1309.92	1309.92	1309.92	1309.92	1309.92	1309.92	-1.18732	-10.3396
1205.57	281.113	1526.93	1309.86	1309.86	1309.86	1309.86	1309.86	1309.86	-1.24216	-10.8536
1205.77	280.913	1327.82	1327.82	1327.82	1327.82	1327.82	1327.82	1327.82	0	0
1205.97	280.713	1212.84	1212.84	1212.84	1212.84	1212.84	1212.84	1212.84	0	0
1206.17	280.513	1393.77	1393.77	1393.77	1393.77	1393.77	1393.77	1393.77	0	0
1206.37	280.313	1222.91	1222.91	1222.91	1222.91	1222.91	1222.91	1222.91	0	0
1206.57	280.113	1183.72	1183.72	1183.72	1183.72	1183.72	1183.72	1183.72	0	0
1206.77	279.913	1283.18	1283.18	1283.18	1283.18	1283.18	1283.18	1283.18	0	0
1206.97	279.713	1129.11	1129.11	1129.11	1129.11	1129.11	1129.11	1129.11	0	0
1207.17	279.513	1030.96	1030.96	1030.96	1030.96	1030.96	1030.96	1030.96	0	0
1207.37	279.313	1115.29	1115.29	1115.29	1115.29	1115.29	1115.29	1115.29	0	0
1207.57	279.113	959.736	959.736	959.736	959.736	959.736	959.736	959.736	0	0
1207.77	278.913	1332.42	1332.42	1332.42	1332.42	1332.42	1332.42	1332.42	0	0
1207.97	278.713	1118.37	1118.37	1118.37	1118.37	1118.37	1118.37	1118.37	0	0

File: 250418_191x195-3.3.csv
C1s Scan
	Characteristic Energy eV	1486.68	Acquisition Time s	0.05
KE_C1s Scan	BE_C1s Scan	CPS_C1s Scan	C-C/C-H_1_C1s Scan	C-O_2_C1s Scan	C=O_3_C1s Scan	O-C=O_4_C1s Scan	Background_C1s Scan	Envelope_C1s Scan	Normalised_Residual_C1s Scan	Residual_C1s Scan
1189.29	297.389	1862.22	1862.22	1862.22	1862.22	1862.22	1862.22	1862.22	0	0
1189.49	297.189	1673.98	1673.98	1673.98	1673.98	1673.98	1673.98	1673.98	0	0
1189.69	296.989	1611.63	1611.63	1611.63	1611.63	1611.63	1611.63	1611.63	0	0
1189.89	296.789	1868.24	1868.24	1868.24	1868.24	1868.24	1868.24	1868.24	0	0
1190.09	296.589	1874.92	1874.92	1874.92	1874.92	1874.92	1874.92	1874.92	0	0
1190.29	296.389	1510.88	1510.88	1510.88	1510.88	1510.88	1510.88	1510.88	0	0
1190.49	296.189	1395.25	1395.25	1395.25	1395.25	1395.25	1395.25	1395.25	0	0
1190.69	295.989	1850.14	1850.14	1850.14	1850.14	1850.14	1850.14	1850.14	0	0
1190.89	295.789	1728.04	1728.04	1728.04	1728.04	1728.04	1728.04	1728.04	0	0
1191.09	295.589	1897.7	1897.7	1897.7	1897.7	1897.7	1897.7	1897.7	0	0
1191.29	295.389	1808.93	1808.93	1808.93	1808.93	1808.93	1808.93	1808.93	0	0
1191.49	295.189	1873.17	1873.17	1873.17	1873.17	1873.17	1873.17	1873.17	0	0
1191.69	294.989	1806.49	1806.49	1806.49	1806.49	1806.49	1806.49	1806.49	0	0
1191.89	294.789	1663.06	1663.06	1663.06	1663.06	1663.06	1663.06	1663.06	0	0
1192.09	294.589	1321.58	1321.58	1321.58	1321.58	1321.58	1321.58	1321.58	0	0
1192.29	294.389	1559.86	1559.86	1559.86	1559.86	1559.86	1559.86	1559.86	0	0
1192.49	294.189	1266.75	1266.75	1266.75	1266.75	1266.75	1266.75	1266.75	0	0
1192.69	293.989	1527.42	1527.42	1527.42	1527.42	1527.42	1527.42	1527.42	0	0
1192.89	293.789	1510.26	1510.26	1510.26	1510.26	1510.26	1510.26	1510.26	0	0
1193.09	293.589	1550.53	1550.53	1550.53	1550.53	1550.53	1550.53	1550.53	0	0
1193.29	293.389	1539.47	1539.47	1539.47	1539.47	1539.47	1539.47	1539.47	0	0
1193.49	293.189	1605.29	1605.29	1605.29	1605.29	1605.29	1605.29	1605.29	0	0
1193.69	292.989	1310.44	1310.44	1310.44	1310.44	1310.44	1310.44	1310.44	0	0
1193.89	292.789	1568.12	1568.12	1568.12	1568.12	1568.13	1568.12	1568.13	0	0
1194.09	292.589	1277.4	1325.59	1325.59	1325.59	1325.62	1325.59	1325.62	0.301645	2.41071
1194.29	292.389	1125.89	1325.54	1325.54	1325.54	1325.6	1325.54	1325.6	1.33087	9.98551
1194.49	292.189	1223.02	1325.5	1325.5	1325.5	1325.69	1325.5	1325.69	0.656438	5.13329
1194.69	291.989	1336.17	1325.48	1325.48	1325.48	1325.97	1325.48	1325.97	-0.0623755	-0.509835
1194.89	291.789	1228.43	1325.42	1325.42	1325.42	1326.68	1325.42	1326.69	0.626841	4.91267
1195.09	291.589	1376.98	1325.4	1325.4	1325.4	1328.45	1325.4	1328.45	-0.292458	-2.42668
1195.29	291.389	1084.27	1325.35	1325.35	1325.36	1332.33	1325.35	1332.33	1.68452	12.4031
1195.49	291.189	1168.89	1325.31	1325.31	1325.33	1340.45	1325.31	1340.47	1.12223	8.5793
1195.69	290.989	1433.8	1325.28	1325.28	1325.33	1356.51	1325.28	1356.56	-0.456134	-3.86208
1195.89	290.789	1458.35	1325.22	1325.22	1325.35	1386.41	1325.22	1386.54	-0.42047	-3.59047
1196.09	290.589	1168.36	1325.18	1325.18	1325.53	1438.75	1325.18	1439.1	1.77111	13.5369
1196.29	290.389	1712.42	1325.1	1325.1	1325.94	1524.54	1325.1	1525.38	-1.01069	-9.35209
1196.49	290.189	1435.36	1325	1325.01	1326.92	1655.71	1325	1657.63	1.31186	11.1136
1196.69	289.989	1828.43	1324.87	1324.89	1329.05	1841.21	1324.87	1845.41	0.0887678	0.84875
1196.89	289.789	2362.58	1324.57	1324.63	1333.21	2080.73	1324.57	2089.43	-1.25659	-13.6575
1197.09	289.589	2226.42	1324.28	1324.46	1341.23	2356.19	1324.28	2373.32	0.696168	7.34518
1197.29	289.389	2623.18	1323.82	1324.3	1355.34	2628.12	1323.82	2660.12	0.161287	1.84714
1197.49	289.189	2885.74	1323.32	1324.57	1378.76	2840.95	1323.32	2897.65	0.049576	0.595505
1197.69	288.989	2905.68	1322.67	1325.76	1414.79	2940.23	1322.67	3035.44	0.538284	6.48815
1197.89	288.789	3131.68	1321.94	1329.15	1466.23	2896.32	1321.94	3047.83	-0.335029	-4.19234
1198.09	288.589	2827.72	1321.32	1337.31	1533.11	2722.95	1321.31	2950.75	0.517333	6.15139
1198.29	288.389	2304.74	1320.87	1354.51	1610.67	2467	1320.86	2790.46	2.26236	24.2861
1198.49	288.189	2647.18	1320.46	1387.76	1687.86	2186.25	1320.43	2621.05	-0.113567	-1.30656
1198.69	287.989	2512.38	1320.05	1447.65	1748.89	1927.92	1319.91	2484.77	-0.123157	-1.38034
1198.89	287.789	2394.64	1320.1	1548.93	1778.1	1719.02	1319.55	2407.52	0.0588455	0.6439
1199.09	287.589	2581.08	1321.16	1708.49	1767.05	1565.98	1319.19	2405.12	-0.774478	-8.79823
1199.29	287.389	2438.88	1325.32	1941.69	1718.9	1462.61	1318.81	2492.1	0.240976	2.66105
1199.49	287.189	2795.98	1338.14	2254.82	1646.46	1397.49	1318.26	2682.11	-0.481528	-5.69343
1199.69	286.989	3102.62	1373.71	2633.26	1566.25	1358.96	1317.64	2979.26	-0.495215	-6.16798
1199.89	286.789	3752.56	1463.09	3032.87	1491.93	1337.32	1316.86	3374.62	-1.37956	-18.8968
1200.09	286.589	3617.86	1668.37	3381.31	1431.29	1325.6	1315.97	3858.68	0.895247	12.0408
1200.29	286.389	4327.12	2098.98	3595.97	1386.33	1319.23	1314.93	4455.72	0.437135	6.42984
1200.49	286.189	5347.96	2920.75	3616.22	1355.31	1315.46	1313.64	5266.83	-0.248074	-4.05659
1200.69	285.989	6790.46	4336.17	3435.49	1334.88	1312.62	1311.89	6483.49	-0.832967	-15.3484
1200.89	285.789	7981.18	6504.92	3105.13	1321.69	1309.94	1309.66	8312.69	0.829756	16.5756
1201.09	285.589	11621.6	9386.52	2705.26	1312.24	1306.37	1306.27	10791.6	-1.72169	-41.5025
1201.29	285.389	13442	12551.4	2312.75	1304.76	1301.98	1301.94	13565.1	0.237392	6.15438
1201.49	285.189	15764.1	15150.5	1978.28	1298.05	1296.8	1296.79	15833.2	0.123209	3.4591
1201.69	284.989	16430	16235.1	1722.76	1291.94	1291.41	1291.41	16667	0.413498	11.8516
1201.89	284.789	15285.4	15347.7	1543.32	1286.32	1286.11	1286.1	15605.1	0.578245	15.9858
1202.09	284.589	12209.1	12863.5	1426.75	1281.94	1281.86	1281.86	13008.5	1.61758	39.9663
1202.29	284.389	10205	9706.94	1355.51	1278.31	1278.28	1278.28	9784.2	-0.931522	-21.0419
1202.49	284.189	7105.16	6760.46	1314.91	1275.91	1275.9	1275.9	6799.48	-0.810893	-15.2839
1202.69	283.989	4703.12	4500.87	1293.29	1274.54	1274.54	1274.54	4519.63	-0.598286	-9.17459
1202.89	283.789	3431.82	3004.11	1282.08	1273.53	1273.52	1273.52	3012.67	-1.59992	-20.9577
1203.09	283.589	2569.2	2124.44	1276.68	1272.98	1272.98	1272.98	2128.14	-1.94572	-22.0528
1203.29	283.389	1971.94	1658.34	1274.17	1272.65	1272.65	1272.65	1659.86	-1.57145	-15.6039
1203.49	283.189	1808.56	1433.93	1273.07	1272.48	1272.48	1272.48	1434.52	-1.96666	-18.7017
1203.69	282.989	1639.25	1334.8	1272.55	1272.33	1272.33	1272.33	1335.02	-1.68025	-15.2119
1203.89	282.789	1686.46	1294.55	1272.27	1272.2	1272.2	1272.2	1294.62	-2.13356	-19.592
1204.09	282.589	1494.63	1279.54	1272.17	1272.15	1272.15	1272.15	1279.56	-1.24391	-10.7533
1204.29	282.389	1600.96	1274.31	1272.06	1272.05	1272.05	1272.05	1274.32	-1.82542	-16.332
1204.49	282.189	1215.72	1272.68	1272.05	1272.04	1272.04	1272.04	1272.68	0.36534	2.84839
1204.69	281.989	1127.23	1272.18	1272.02	1272.01	1272.01	1272.01	1272.18	0.96539	7.2476
1204.89	281.789	1129.19	1272.02	1271.98	1271.98	1271.98	1271.98	1272.02	0.950394	7.14123
1205.09	281.589	1167.58	1271.96	1271.95	1271.95	1271.95	1271.95	1271.96	0.683077	5.21912
1205.29	281.389	1286.99	1271.9	1271.9	1271.9	1271.9	1271.9	1271.9	-0.0940667	-0.754586
1205.49	281.189	1126.14	1271.84	1271.84	1271.84	1271.84	1271.84	1271.84	0.970852	7.28508
1205.69	280.989	1167.62	1271.82	1271.82	1271.82	1271.82	1271.82	1271.82	0.681813	5.20957
1205.89	280.789	1350.56	1350.56	1350.56	1350.56	1350.56	1350.56	1350.56	0	0
1206.09	280.589	1382.41	1382.41	1382.41	1382.41	1382.41	1382.41	1382.41	0	0
1206.29	280.389	1390	1390	1390	1390	1390	1390	1390	0	0
1206.49	280.189	1157.61	1157.61	1157.61	1157.61	1157.61	1157.61	1157.61	0	0
1206.69	279.989	1240.77	1240.77	1240.77	1240.77	1240.77	1240.77	1240.77	0	0
1206.89	279.789	1112.66	1112.66	1112.66	1112.66	1112.66	1112.66	1112.66	0	0
1207.09	279.589	1177.44	1177.44	1177.44	1177.44	1177.44	1177.44	1177.44	0	0
1207.29	279.389	1245.25	1245.25	1245.25	1245.25	1245.25	1245.25	1245.25	0	0
1207.49	279.189	1289.3	1289.3	1289.3	1289.3	1289.3	1289.3	1289.3	0	0
1207.69	278.989	860.326	860.326	860.326	860.326	860.326	860.326	860.326	0	0
1207.89	278.789	1296.38	1296.38	1296.38	1296.38	1296.38	1296.38	1296.38	0	0
1208.09	278.589	1202.47	1202.47	1202.47	1202.47	1202.47	1202.47	1202.47	0	0
1208.29	278.389	1035.81	1035.81	1035.81	1035.81	1035.81	1035.81	1035.81	0	0

File: 250418_195-2.1.csv
C1s Scan
	Characteristic Energy eV	1486.68	Acquisition Time s	0.05
KE_C1s Scan	BE_C1s Scan	CPS_C1s Scan	C-C/C-H_1_C1s Scan	C-O_2_C1s Scan	C=O_3_C1s Scan	O-C=O_4_C1s Scan	Background_C1s Scan	Envelope_C1s Scan	Normalised_Residual_C1s Scan	Residual_C1s Scan
1188.96	297.718	903.304	903.304	903.304	903.304	903.304	903.304	903.304	0	0
1189.16	297.518	1019.08	1019.08	1019.08	1019.08	1019.08	1019.08	1019.08	0	0
1189.36	297.318	1005.9	1005.9	1005.9	1005.9	1005.9	1005.9	1005.9	0	0
1189.56	297.118	802.3	802.3	802.3	802.3	802.3	802.3	802.3	0	0
1189.76	296.918	1243.28	1243.28	1243.28	1243.28	1243.28	1243.28	1243.28	0	0
1189.96	296.718	875.162	875.162	875.162	875.162	875.162	875.162	875.162	0	0
1190.16	296.518	746.566	746.566	746.566	746.566	746.566	746.566	746.566	0	0
1190.36	296.318	752.872	752.872	752.872	752.872	752.872	752.872	752.872	0	0
1190.56	296.118	811.242	811.242	811.242	811.242	811.242	811.242	811.242	0	0
1190.76	295.918	891.74	891.74	891.74	891.74	891.74	891.74	891.74	0	0
1190.96	295.718	769.42	769.42	769.42	769.42	769.42	769.42	769.42	0	0
1191.16	295.518	769.852	769.852	769.852	769.852	769.852	769.852	769.852	0	0
1191.36	295.318	511.102	511.102	511.102	511.102	511.102	511.102	511.102	0	0
1191.56	295.118	836.054	836.054	836.054	836.054	836.054	836.054	836.054	0	0
1191.76	294.918	531.768	531.768	531.768	531.768	531.768	531.768	531.768	0	0
1191.96	294.718	687.03	687.03	687.03	687.03	687.03	687.03	687.03	0	0
1192.16	294.518	629.626	629.626	629.626	629.626	629.626	629.626	629.626	0	0
1192.36	294.318	546.858	546.858	546.858	546.858	546.858	546.858	546.858	0	0
1192.56	294.118	540.272	540.272	540.272	540.272	540.272	540.272	540.272	0	0
1192.76	293.918	488.548	488.548	488.548	488.548	488.548	488.548	488.548	0	0
1192.96	293.718	603.836	603.836	603.836	603.836	603.836	603.836	603.836	0	0
1193.16	293.518	340.334	340.334	340.334	340.334	340.334	340.334	340.334	0	0
1193.36	293.318	542.172	542.172	542.172	542.172	542.172	542.172	542.172	0	0
1193.56	293.118	342.68	342.68	342.68	342.68	342.68	342.68	342.68	0	0
1193.76	292.918	545.09	545.09	545.09	545.09	545.091	545.09	545.091	0	0
1193.96	292.718	561.96	561.96	561.96	561.96	561.963	561.96	561.963	0	0
1194.16	292.518	265.062	265.062	265.062	265.062	265.072	265.062	265.072	0	0
1194.36	292.318	333.012	333.012	333.012	333.012	333.042	333.012	333.042	0	0
1194.56	292.118	276.462	276.462	276.462	276.462	276.546	276.462	276.547	0	0
1194.76	291.918	261.84	261.84	261.84	261.841	262.069	261.84	262.07	0	0
1194.96	291.718	300.194	300.194	300.194	300.199	300.783	300.194	300.787	0	0
1195.16	291.518	347.546	347.546	347.546	347.561	348.982	347.546	348.996	0	0
1195.36	291.318	267.314	267.314	267.314	267.357	270.636	267.314	270.679	0	0
1195.56	291.118	230.354	230.354	230.354	230.474	237.647	230.354	237.767	0	0
1195.76	290.918	180.941	196.419	196.419	196.734	211.67	196.419	211.985	0.516057	1.55221
1195.96	290.718	172.45	196.429	196.429	197.219	226.673	196.429	227.463	0.936746	2.75067
1196.16	290.518	278.88	196.443	196.443	198.325	253.27	196.443	255.153	-0.317704	-1.18636
1196.36	290.318	358.924	196.465	196.466	200.721	297.533	196.465	301.79	-0.674344	-2.85672
1196.56	290.118	265.318	196.474	196.479	205.601	366.325	196.474	375.457	1.51197	5.50694
1196.76	289.918	609.132	196.542	196.559	215.113	465.744	196.542	484.332	-1.13069	-6.24002
1196.96	289.718	630.414	196.614	196.665	232.494	596.966	196.614	632.896	0.0221067	0.124114
1197.16	289.518	899.002	196.748	196.898	262.509	752.391	196.748	818.302	-0.601837	-4.03501
1197.36	289.318	1310.93	196.918	197.337	310.88	912.329	196.918	1026.71	-1.75531	-14.2111
1197.56	289.118	1257.48	197.145	198.257	383.477	1046.34	197.145	1233.78	-0.14944	-1.18496
1197.76	288.918	1366.4	197.38	200.18	483.91	1121.3	197.38	1410.63	0.267549	2.21145
1197.96	288.718	1771.09	197.705	204.391	610.314	1116.15	197.705	1535.45	-1.25205	-11.7822
1198.16	288.518	1505.23	197.97	213.12	751.087	1032.7	197.97	1600.96	0.551787	4.78693
1198.36	288.318	1424.33	198.268	230.899	883.857	894.226	198.268	1612.44	1.11454	9.40563
1198.56	288.118	1582.34	198.572	265.399	979.695	733.79	198.572	1581.74	-0.00339481	-0.0301961
1198.76	287.918	1582.9	198.893	328.609	1013.4	580.977	198.89	1525.21	-0.324277	-2.88488
1198.96	287.718	1415.68	199.199	437.683	975.188	454.089	199.179	1468.62	0.314604	2.64687
1199.16	287.518	1255.87	199.539	614.275	875.765	359.122	199.432	1450.41	1.2275	9.72699
1199.36	287.318	1379.35	200.223	881.071	741.877	293.983	199.704	1518.04	0.83506	6.93488
1199.56	287.118	1688.34	202.268	1253.78	602.202	252.599	200.008	1710.82	0.122358	1.12421
1199.76	286.918	2079.38	209.283	1726.12	478.208	228.179	200.405	2040.58	-0.190259	-1.93998
1199.96	286.718	2770.4	232.381	2257.82	380.557	214.86	200.919	2482.86	-1.22154	-14.3769
1200.16	286.518	2645.18	301.791	2767.62	310.88	208.135	201.497	2983.93	1.47279	16.9377
1200.36	286.318	3617.94	489.777	3146.78	265.055	205.164	202.165	3500.28	-0.437413	-5.88311
1200.56	286.118	3366.56	944.242	3293.88	237.126	204.204	202.92	4070.69	2.7136	35.2066
1200.76	285.918	5097.54	1917.1	3168.5	221.532	204.431	203.909	4899.83	-0.619194	-9.88536
1200.96	285.718	6247.88	3738.1	2807.47	213.801	205.398	205.196	6349.17	0.286553	5.06473
1201.16	285.518	8440.82	6649.27	2306.57	210.923	207.001	206.927	8752.98	0.759754	15.6081
1201.36	285.318	11623.6	10444.8	1775.68	211.045	209.307	209.281	12013	0.807543	19.468
1201.56	285.118	14971.1	14136.4	1300.22	213.097	212.367	212.358	15225	0.463886	12.6918
1201.76	284.918	16234.3	16160.9	923.459	216.265	215.974	215.972	16868.7	1.11332	31.7191
1201.96	284.718	15681.3	15444.6	652.195	219.575	219.465	219.464	15877.4	0.35024	9.80712
1202.16	284.518	13102.2	12382.9	472.177	222.498	222.459	222.459	12632.6	-0.917408	-23.4812
1202.36	284.318	8658	8465.69	360.711	224.472	224.458	224.458	8601.96	-0.134679	-2.80216
1202.56	284.118	4722.8	5054.55	296.175	225.647	225.643	225.643	5125.09	1.30894	20.1143
1202.76	283.918	2722.96	2711.62	260.961	226.296	226.294	226.294	2746.29	0.0999667	1.16644
1202.96	283.718	1586.81	1362.77	242.814	226.65	226.65	226.65	1378.94	-1.16689	-10.3939
1203.16	283.518	1061.14	691.258	233.992	226.843	226.843	226.843	698.408	-2.48992	-18.1366
1203.36	283.318	710.448	397.353	229.986	226.987	226.987	226.987	400.352	-2.60145	-15.5048
1203.56	283.118	513.522	283.439	228.268	227.072	227.072	227.072	284.635	-2.25853	-11.4443
1203.76	282.918	263.476	243.91	227.562	227.108	227.108	227.108	244.364	-0.263277	-0.955581
1203.96	282.718	436.058	231.648	227.303	227.14	227.14	227.14	231.811	-2.1871	-10.2123
1204.16	282.518	320.662	228.268	227.236	227.18	227.18	227.18	228.324	-1.15303	-4.6169
1204.36	282.318	253.894	227.427	227.209	227.191	227.191	227.191	227.445	-0.371163	-1.32244
1204.56	282.118	193.774	227.26	227.22	227.215	227.215	227.215	227.266	0.537988	1.67458
1204.76	281.918	344.27	227.249	227.243	227.241	227.241	227.241	227.251	-1.41024	-5.85095
1204.96	281.718	107.519	107.52	107.519	107.519	107.519	107.519	107.52	0	0
1205.16	281.518	122.791	122.792	122.792	122.791	122.791	122.791	122.792	0	0
1205.36	281.318	275.336	275.336	275.336	275.336	275.336	275.336	275.336	0	0
1205.56	281.118	260.91	260.91	260.91	260.91	260.91	260.91	260.91	0	0
1205.76	280.918	114.336	114.336	114.336	114.336	114.336	114.336	114.336	0	0
1205.96	280.718	168.277	168.277	168.277	168.277	168.277	168.277	168.277	0	0
1206.16	280.518	123.732	123.732	123.732	123.732	123.732	123.732	123.732	0	0
1206.36	280.318	184.566	184.566	184.566	184.566	184.566	184.566	184.566	0	0
1206.56	280.118	110.404	110.404	110.404	110.404	110.404	110.404	110.404	0	0
1206.76	279.918	111.339	111.339	111.339	111.339	111.339	111.339	111.339	0	0
1206.96	279.718	110.674	110.674	110.674	110.674	110.674	110.674	110.674	0	0
1207.16	279.518	107.797	107.797	107.797	107.797	107.797	107.797	107.797	0	0
1207.36	279.318	106.275	106.275	106.275	106.275	106.275	106.275	106.275	0	0
1207.56	279.118	79.0718	79.0718	79.0718	79.0718	79.0718	79.0718	79.0718	0	0
1207.76	278.918	114.613	114.613	114.613	114.613	114.613	114.613	114.613	0	0
1207.96	278.718	97.502	97.502	97.502	97.502	97.502	97.502	97.502	0	0