Folder: stickleback_plastic_degradation/XPS/XPS (part 4)

File: 241019_195-3.2.csv
C1s Scan
	Characteristic Energy eV	1486.68	Acquisition Time s	0.05
KE_C1s Scan	BE_C1s Scan	CPS_C1s Scan	C-C/C-H_1_C1s Scan	C-O_2_C1s Scan	C=O_3_C1s Scan	O-C=O_4_C1s Scan	Background_C1s Scan	Envelope_C1s Scan	Normalised_Residual_C1s Scan	Residual_C1s Scan
1189.07	297.61	2605.88	2605.88	2605.88	2605.88	2605.88	2605.88	2605.88	0	0
1189.27	297.41	2117.08	2117.08	2117.08	2117.08	2117.08	2117.08	2117.08	0	0
1189.47	297.21	2033.98	2033.98	2033.98	2033.98	2033.98	2033.98	2033.98	0	0
1189.67	297.01	2299.56	2299.56	2299.56	2299.56	2299.56	2299.56	2299.56	0	0
1189.87	296.81	1979.43	1979.43	1979.43	1979.43	1979.43	1979.43	1979.43	0	0
1190.07	296.61	1787.95	1787.95	1787.95	1787.95	1787.95	1787.95	1787.95	0	0
1190.27	296.41	1823.98	1823.98	1823.98	1823.98	1823.98	1823.98	1823.98	0	0
1190.47	296.21	1592.71	1592.71	1592.71	1592.71	1592.71	1592.71	1592.71	0	0
1190.67	296.01	1793.54	1793.54	1793.54	1793.54	1793.54	1793.54	1793.54	0	0
1190.87	295.81	1725.84	1725.84	1725.84	1725.84	1725.84	1725.84	1725.84	0	0
1191.07	295.61	1796.15	1796.15	1796.15	1796.15	1796.15	1796.15	1796.15	0	0
1191.27	295.41	1522.55	1522.55	1522.55	1522.55	1522.55	1522.55	1522.55	0	0
1191.47	295.21	1325.41	1325.41	1325.41	1325.41	1325.41	1325.41	1325.41	0	0
1191.67	295.01	1570.41	1570.41	1570.41	1570.41	1570.41	1570.41	1570.41	0	0
1191.87	294.81	1162.45	1162.45	1162.45	1162.45	1162.45	1162.45	1162.45	0	0
1192.07	294.61	1169.12	1169.12	1169.12	1169.12	1169.12	1169.12	1169.12	0	0
1192.27	294.41	918.64	918.64	918.64	918.64	918.64	918.64	918.64	0	0
1192.47	294.21	896.714	896.714	896.714	896.714	896.714	896.714	896.714	0	0
1192.67	294.01	917.358	917.358	917.358	917.358	917.358	917.358	917.358	0	0
1192.87	293.81	964.38	964.38	964.38	964.38	964.38	964.38	964.38	0	0
1193.07	293.61	975.22	975.22	975.22	975.22	975.22	975.22	975.22	0	0
1193.27	293.41	789.266	789.266	789.266	789.266	789.266	789.266	789.266	0	0
1193.47	293.21	847.012	847.012	847.012	847.012	847.012	847.012	847.012	0	0
1193.67	293.01	550.43	550.43	550.43	550.43	550.43	550.43	550.43	0	0
1193.87	292.81	581.216	581.216	581.216	581.216	581.216	581.216	581.216	0	0
1194.07	292.61	810.708	810.708	810.708	810.708	810.708	810.708	810.708	0	0
1194.27	292.41	481.53	481.53	481.53	481.53	481.531	481.53	481.531	0	0
1194.47	292.21	704.05	704.05	704.05	704.05	704.054	704.05	704.054	0	0
1194.67	292.01	647.712	647.712	647.712	647.712	647.725	647.712	647.725	0	0
1194.87	291.81	594.82	594.82	594.82	594.82	594.866	594.82	594.866	0	0
1195.07	291.61	397.16	397.16	397.16	397.16	397.31	397.16	397.31	0	0
1195.27	291.41	384.858	384.858	384.858	384.859	385.313	384.858	385.314	0	0
1195.47	291.21	704.758	704.758	704.758	704.76	706.056	704.758	706.059	0	0
1195.67	291.01	426.316	482.213	482.213	482.222	485.658	482.213	485.667	0.642762	2.96757
1195.87	290.81	539.888	482.199	482.199	482.233	490.777	482.199	490.811	-0.472296	-2.45387
1196.07	290.61	391.006	482.187	482.187	482.301	502.073	482.187	502.187	1.25726	5.55907
1196.27	290.41	390.736	482.174	482.174	482.534	525.36	482.174	525.72	1.52696	6.74922
1196.47	290.21	552.842	482.166	482.166	483.235	569.398	482.166	570.468	0.167623	0.88129
1196.67	290.01	709.674	482.143	482.144	485.086	646.471	482.143	649.415	-0.505797	-3.01294
1196.87	289.81	763.592	482.097	482.1	489.716	768.653	482.097	776.275	0.102632	0.63416
1197.07	289.61	859.572	482.038	482.05	500.366	943.469	482.038	961.81	0.779749	5.11189
1197.27	289.41	1320.22	481.944	481.991	523.341	1161.8	481.944	1203.24	-0.719902	-5.849
1197.47	289.21	1180.2	481.827	481.992	568.725	1390.76	481.827	1477.82	1.93719	14.8811
1197.67	289.01	1822.57	481.639	482.184	652.221	1574.03	481.639	1745.16	-0.405461	-3.87058
1197.87	288.81	1814.3	481.425	483.112	791.753	1651.41	481.425	1963.42	0.782839	7.45611
1198.07	288.61	2051.28	481.144	486.024	1004.52	1595.76	481.144	2124.02	0.359117	3.63692
1198.27	288.41	2859.94	480.805	494.004	1291.55	1426.13	480.805	2250.07	-2.55002	-30.4935
1198.47	288.21	2484.32	480.49	513.839	1626.49	1200.17	480.49	2379.52	-0.470147	-5.23989
1198.67	288.01	2575.1	480.14	558.935	1943.67	976.449	480.139	2518.78	-0.248188	-2.8162
1198.87	287.81	2323.84	479.831	653.594	2152.23	792.516	479.826	2638.69	1.46046	15.7426
1199.07	287.61	2224.22	479.545	837.279	2181.29	661.266	479.506	2720.86	2.35472	24.8321
1199.27	287.41	2826.28	479.418	1164.66	2017.67	576.851	479.167	2801.1	-0.105903	-1.25893
1199.47	287.21	2927.54	480.147	1698.55	1721.9	527.714	478.747	2992.07	0.26667	3.22634
1199.67	287.01	3908.7	485.119	2482.39	1383.04	501.04	478.236	3416.89	-1.75901	-24.5906
1199.87	286.81	4519.2	507.73	3499.44	1076.48	487.551	477.593	4138.42	-1.26658	-19.0392
1200.07	286.61	4778.3	593.034	4620.2	840.883	480.932	476.889	5104.38	1.05481	16.3041
1200.27	286.41	6204.56	873.11	5592.85	680.152	477.563	476.02	6195.61	-0.0254063	-0.447489
1200.47	286.21	6821.18	1675.97	6120.41	581.46	475.556	475.009	7428.37	1.6439	30.3593
1200.67	286.01	9343.62	3673.05	6009.49	525.245	473.844	473.661	9260.65	-0.191933	-4.14852
1200.87	285.81	12802.8	7983.75	5304.32	495.187	471.861	471.805	12839.7	0.0729685	1.84617
1201.07	285.61	20560.4	15811.6	4245.16	478.683	468.83	468.813	19597.9	-1.50102	-48.1268
1201.27	285.41	31381.2	27377.2	3130.94	468.225	464.323	464.319	30047.7	-1.68325	-66.6757
1201.47	285.21	40766.4	40168	2176.28	459.559	458.12	458.119	41887.6	1.24173	56.0612
1201.67	285.01	49757.6	48645.8	1467.78	450.764	450.266	450.266	49663.8	-0.0940291	-4.69005
1201.87	284.81	49614.2	47804	1000.55	442.499	442.339	442.339	48362.4	-1.25668	-62.5914
1202.07	284.61	38995.6	38201	719.462	435.353	435.305	435.305	38485.2	-0.577925	-25.5191
1202.27	284.41	25404.8	25278.2	565.783	430.719	430.705	430.705	25413.3	0.0118835	0.423534
1202.47	284.21	13432.9	14234.4	487.974	428.206	428.202	428.202	14294.2	1.66178	43.0669
1202.67	284.01	6650.16	7028.4	451.74	426.948	426.947	426.947	7053.19	1.10512	20.1517
1202.87	283.81	3498.38	3182.25	435.867	426.297	426.296	426.296	3191.82	-1.15895	-15.328
1203.07	283.61	2043.78	1438.64	429.398	425.928	425.928	425.928	1442.11	-2.97597	-30.0837
1203.27	283.41	1769.36	753.304	426.846	425.676	425.676	425.676	754.473	-5.39502	-50.7442
1203.47	283.21	1303.24	519.767	425.891	425.52	425.52	425.52	520.137	-4.85056	-39.1552
1203.67	283.01	819.474	449.351	425.538	425.429	425.429	425.429	449.46	-2.89025	-18.5007
1203.87	282.81	941.118	430.696	425.359	425.329	425.329	425.329	430.726	-3.72021	-25.5196
1204.07	282.61	584.438	426.33	425.268	425.26	425.26	425.26	426.338	-1.46234	-7.905
1204.27	282.41	855.622	425.387	425.201	425.2	425.2	425.2	425.389	-3.28888	-21.5117
1204.47	282.21	606.84	425.185	425.157	425.156	425.156	425.156	425.186	-1.6489	-9.08272
1204.67	282.01	553.362	425.122	425.118	425.118	425.118	425.118	425.122	-1.219	-6.41199
1204.87	281.81	526.852	425.097	425.097	425.097	425.097	425.097	425.097	-0.991278	-5.08774
1205.07	281.61	427.858	425.093	425.093	425.093	425.093	425.093	425.093	-0.0298885	-0.138242
1205.27	281.41	500.624	500.624	500.624	500.624	500.624	500.624	500.624	0	0
1205.47	281.21	554.398	554.398	554.398	554.398	554.398	554.398	554.398	0	0
1205.67	281.01	367.196	367.196	367.196	367.196	367.196	367.196	367.196	0	0
1205.87	280.81	466.11	466.11	466.11	466.11	466.11	466.11	466.11	0	0
1206.07	280.61	428.618	428.618	428.618	428.618	428.618	428.618	428.618	0	0
1206.27	280.41	342.562	342.562	342.562	342.562	342.562	342.562	342.562	0	0
1206.47	280.21	390.074	390.074	390.074	390.074	390.074	390.074	390.074	0	0
1206.67	280.01	230.602	230.602	230.602	230.602	230.602	230.602	230.602	0	0
1206.87	279.81	439.79	439.79	439.79	439.79	439.79	439.79	439.79	0	0
1207.07	279.61	283.206	283.206	283.206	283.206	283.206	283.206	283.206	0	0
1207.27	279.41	250.068	250.068	250.068	250.068	250.068	250.068	250.068	0	0
1207.47	279.21	201.444	201.444	201.444	201.444	201.444	201.444	201.444	0	0
1207.67	279.01	117.901	117.901	117.901	117.901	117.901	117.901	117.901	0	0
1207.87	278.81	353.168	353.168	353.168	353.168	353.168	353.168	353.168	0	0
1208.07	278.61	242.03	242.03	242.03	242.03	242.03	242.03	242.03	0	0

File: 241019_195-3.3.csv
C1s Scan
	Characteristic Energy eV	1486.68	Acquisition Time s	0.05
KE_C1s Scan	BE_C1s Scan	CPS_C1s Scan	C-C/C-H_1_C1s Scan	C-O_2_C1s Scan	C=O_3_C1s Scan	O-C=O_4_C1s Scan	Background_C1s Scan	Envelope_C1s Scan	Normalised_Residual_C1s Scan	Residual_C1s Scan
1188.97	297.713	2282.92	2282.92	2282.92	2282.92	2282.92	2282.92	2282.92	0	0
1189.17	297.513	2588.04	2588.04	2588.04	2588.04	2588.04	2588.04	2588.04	0	0
1189.37	297.313	1989.11	1989.11	1989.11	1989.11	1989.11	1989.11	1989.11	0	0
1189.57	297.113	2096.12	2096.12	2096.12	2096.12	2096.12	2096.12	2096.12	0	0
1189.77	296.913	1994.72	1994.72	1994.72	1994.72	1994.72	1994.72	1994.72	0	0
1189.97	296.713	1877.84	1877.84	1877.84	1877.84	1877.84	1877.84	1877.84	0	0
1190.17	296.513	1768.89	1768.89	1768.89	1768.89	1768.89	1768.89	1768.89	0	0
1190.37	296.313	1720.85	1720.85	1720.85	1720.85	1720.85	1720.85	1720.85	0	0
1190.57	296.113	1953.5	1953.5	1953.5	1953.5	1953.5	1953.5	1953.5	0	0
1190.77	295.913	1798.34	1798.34	1798.34	1798.34	1798.34	1798.34	1798.34	0	0
1190.97	295.713	1654.28	1654.28	1654.28	1654.28	1654.28	1654.28	1654.28	0	0
1191.17	295.513	1443.91	1443.91	1443.91	1443.91	1443.91	1443.91	1443.91	0	0
1191.37	295.313	1531.32	1531.32	1531.32	1531.32	1531.32	1531.32	1531.32	0	0
1191.57	295.113	1323.74	1323.74	1323.74	1323.74	1323.74	1323.74	1323.74	0	0
1191.77	294.913	1180.86	1180.86	1180.86	1180.86	1180.86	1180.86	1180.86	0	0
1191.97	294.713	1603.12	1603.12	1603.12	1603.12	1603.12	1603.12	1603.12	0	0
1192.17	294.513	1372.98	1372.98	1372.98	1372.98	1372.98	1372.98	1372.98	0	0
1192.37	294.313	1234.61	1234.61	1234.61	1234.61	1234.61	1234.61	1234.61	0	0
1192.57	294.113	1209.95	1209.95	1209.95	1209.95	1209.95	1209.95	1209.95	0	0
1192.77	293.913	1043.5	1043.5	1043.5	1043.5	1043.5	1043.5	1043.5	0	0
1192.97	293.713	1009.08	1009.08	1009.08	1009.08	1009.08	1009.08	1009.08	0	0
1193.17	293.513	811.304	811.304	811.304	811.304	811.304	811.304	811.304	0	0
1193.37	293.313	800.338	800.338	800.338	800.338	800.338	800.338	800.338	0	0
1193.57	293.113	598.184	598.184	598.184	598.184	598.184	598.184	598.184	0	0
1193.77	292.913	610.07	610.07	610.07	610.07	610.07	610.07	610.07	0	0
1193.97	292.713	560.902	560.902	560.902	560.902	560.902	560.902	560.902	0	0
1194.17	292.513	749.598	749.598	749.598	749.598	749.598	749.598	749.598	0	0
1194.37	292.313	511.864	511.864	511.864	511.864	511.866	511.864	511.866	0	0
1194.57	292.113	527.726	527.726	527.726	527.726	527.734	527.726	527.734	0	0
1194.77	291.913	427.49	427.49	427.49	427.49	427.517	427.49	427.517	0	0
1194.97	291.713	393.86	393.86	393.86	393.86	393.947	393.86	393.947	0	0
1195.17	291.513	433.334	433.334	433.334	433.335	433.601	433.334	433.602	0	0
1195.37	291.313	432.05	432.05	432.05	432.056	432.812	432.05	432.818	0	0
1195.57	291.113	323.064	323.064	323.064	323.086	325.113	323.064	325.135	0	0
1195.77	290.913	493.748	438.503	438.503	438.58	443.618	438.503	443.694	-0.503696	-2.50269
1195.97	290.713	365.99	438.527	438.527	438.773	450.524	438.527	450.771	0.99094	4.23903
1196.17	290.513	420.774	438.59	438.59	439.338	464.754	438.59	465.502	0.487578	2.23642
1196.37	290.313	469.958	438.642	438.642	440.752	492.058	438.642	494.169	0.249727	1.21054
1196.57	290.113	673.088	438.719	438.72	444.312	539.948	438.719	545.542	-1.0993	-6.37728
1196.77	289.913	625.34	438.782	438.786	452.572	617.107	438.782	630.901	0.0497217	0.278028
1196.97	289.713	703.054	438.909	438.924	470.809	728.454	438.909	760.368	0.483341	2.86572
1197.17	289.513	869.782	439.11	439.167	507.761	870.248	439.11	938.956	0.524471	3.45869
1197.37	289.313	1103.41	439.433	439.63	577.631	1022.39	439.433	1160.79	0.386271	2.8691
1197.57	289.113	1424.16	439.877	440.524	698.043	1148.79	439.877	1407.6	-0.0981394	-0.828148
1197.77	288.913	1556.29	440.412	442.381	888.298	1210.07	440.412	1659.93	0.587411	5.1817
1197.97	288.713	1965.96	441.132	446.764	1156.47	1183.42	441.132	1904.4	-0.310471	-3.07818
1198.17	288.513	2555.32	442.049	457.028	1488.09	1079.86	442.049	2140.87	-1.83329	-20.7223
1198.37	288.313	2386.28	442.988	480.376	1829.49	934.104	442.988	2357.99	-0.12948	-1.41432
1198.57	288.113	2424.8	444.049	530.955	2093.64	786.215	444.049	2522.71	0.44461	4.89555
1198.77	287.913	2408.34	444.982	634.135	2195.57	662.8	444.977	2602.56	0.884939	9.71084
1198.97	287.713	2588.14	446	829.156	2095.58	573.527	445.966	2606.36	0.0800896	0.911076
1199.17	287.513	2802.48	447.209	1170.55	1833.53	516.246	446.991	2626.56	-0.743089	-8.79624
1199.37	287.313	2786.5	449.375	1713.79	1494.23	483.06	448.152	2796	0.040256	0.475166
1199.57	287.113	3764.4	455.812	2493.46	1165.04	466.094	449.663	3231.42	-1.94246	-26.6492
1199.77	286.913	3599.16	478.559	3472.98	899.314	458.606	451.402	3955.25	1.32724	17.8047
1199.97	286.713	4996.78	559.67	4508.21	711.693	456.467	453.509	4875.51	-0.383611	-6.06347
1200.17	286.513	6543.06	824.127	5348.16	594.383	457.307	456.175	5855.46	-1.90079	-34.3802
1200.37	286.313	6909.22	1583.16	5722.13	527.779	459.529	459.123	6915.23	0.0161764	0.300665
1200.57	286.113	8369.08	3504.13	5496.98	494.761	462.994	462.858	8570.3	0.491828	10.0609
1200.77	285.913	11919.3	7688.6	4756.19	481.812	468.064	468.021	11990.6	0.146045	3.5653
1200.97	285.713	18813	15420.3	3753.28	481.97	476.388	476.376	18702.8	-0.179635	-5.50942
1201.17	285.513	30124.2	27089.1	2757.08	491.701	489.594	489.59	29358.7	-0.986262	-38.2768
1201.37	285.313	41097.2	40383.9	1942.41	509.384	508.636	508.635	41818.5	0.795556	36.063
1201.57	285.113	50041.4	49739	1367.56	532.52	532.274	532.274	50574.5	0.532897	26.6559
1201.77	284.913	51012.6	49760.1	1008.42	557.871	557.795	557.795	50210.8	-0.793804	-40.0901
1201.97	284.713	41187.6	40443.7	805.782	579.625	579.603	579.603	40669.9	-0.570359	-25.8831
1202.17	284.513	26155	27182.3	700.243	594.455	594.449	594.449	27288.1	1.56666	56.6547
1202.37	284.313	15511.1	15538.2	649.268	603.053	603.052	603.052	15584.4	0.131559	3.66375
1202.57	284.113	7620.3	7823.05	626.322	607.463	607.463	607.463	7841.91	0.567658	11.0805
1202.77	283.913	4655.86	3648.56	617.021	609.828	609.828	609.828	3655.75	-3.27742	-50.0055
1202.97	283.713	2599.16	1734	613.52	610.956	610.956	610.956	1736.56	-3.78335	-43.1299
1203.17	283.513	1777.69	979.255	612.538	611.683	611.683	611.683	980.109	-4.22993	-39.8792
1203.37	283.313	1546.93	718.186	612.42	612.154	612.154	612.154	718.453	-4.71009	-41.4237
1203.57	283.113	1193.61	639.57	612.523	612.445	612.445	612.445	639.647	-3.58538	-27.6982
1203.77	282.913	1167.93	618.833	612.713	612.692	612.692	612.692	618.854	-3.59259	-27.4537
1203.97	282.713	832.082	613.989	612.773	612.768	612.768	612.768	613.995	-1.69057	-10.9044
1204.17	282.513	597.832	613.032	612.817	612.815	612.815	612.815	613.034	0.139022	0.760079
1204.37	282.313	614.902	612.859	612.826	612.826	612.826	612.826	612.86	-0.0184156	-0.102111
1204.57	282.113	652.066	612.887	612.882	612.882	612.882	612.882	612.887	-0.343079	-1.95896
1204.77	281.913	632.396	612.903	612.903	612.903	612.903	612.903	612.903	-0.173326	-0.974638
1204.97	281.713	517.46	517.46	517.46	517.46	517.46	517.46	517.46	0	0
1205.17	281.513	493.14	493.14	493.14	493.14	493.14	493.14	493.14	0	0
1205.37	281.313	406.78	406.78	406.78	406.78	406.78	406.78	406.78	0	0
1205.57	281.113	264.346	264.346	264.346	264.346	264.346	264.346	264.346	0	0
1205.77	280.913	415.76	415.76	415.76	415.76	415.76	415.76	415.76	0	0
1205.97	280.713	273.888	273.888	273.888	273.888	273.888	273.888	273.888	0	0
1206.17	280.513	378.638	378.638	378.638	378.638	378.638	378.638	378.638	0	0
1206.37	280.313	386.328	386.328	386.328	386.328	386.328	386.328	386.328	0	0
1206.57	280.113	323.344	323.344	323.344	323.344	323.344	323.344	323.344	0	0
1206.77	279.913	225.578	225.578	225.578	225.578	225.578	225.578	225.578	0	0
1206.97	279.713	285.492	285.492	285.492	285.492	285.492	285.492	285.492	0	0
1207.17	279.513	334.504	334.504	334.504	334.504	334.504	334.504	334.504	0	0
1207.37	279.313	360.488	360.488	360.488	360.488	360.488	360.488	360.488	0	0
1207.57	279.113	274.408	274.408	274.408	274.408	274.408	274.408	274.408	0	0
1207.77	278.913	229.76	229.76	229.76	229.76	229.76	229.76	229.76	0	0
1207.97	278.713	228.078	228.078	228.078	228.078	228.078	228.078	228.078	0	0

File: 241019_C-1.1.csv
C1s Scan
	Characteristic Energy eV	1486.68	Acquisition Time s	0.05
KE_C1s Scan	BE_C1s Scan	CPS_C1s Scan	C-C/C-H_1_C1s Scan	C-O_2_C1s Scan	C=O_3_C1s Scan	O-C=O_4_C1s Scan	Background_C1s Scan	Envelope_C1s Scan	Normalised_Residual_C1s Scan	Residual_C1s Scan
1188.99	297.69	2463.56	2463.56	2463.56	2463.56	2463.56	2463.56	2463.56	0	0
1189.19	297.49	2347.58	2347.58	2347.58	2347.58	2347.58	2347.58	2347.58	0	0
1189.39	297.29	2037.06	2037.06	2037.06	2037.06	2037.06	2037.06	2037.06	0	0
1189.59	297.09	2118.48	2118.48	2118.48	2118.48	2118.48	2118.48	2118.48	0	0
1189.79	296.89	2287.78	2287.78	2287.78	2287.78	2287.78	2287.78	2287.78	0	0
1189.99	296.69	2276.14	2276.14	2276.14	2276.14	2276.14	2276.14	2276.14	0	0
1190.19	296.49	1898.78	1898.78	1898.78	1898.78	1898.78	1898.78	1898.78	0	0
1190.39	296.29	2136.4	2136.4	2136.4	2136.4	2136.4	2136.4	2136.4	0	0
1190.59	296.09	2098.08	2098.08	2098.08	2098.08	2098.08	2098.08	2098.08	0	0
1190.79	295.89	1740.42	1740.42	1740.42	1740.42	1740.42	1740.42	1740.42	0	0
1190.99	295.69	1616.27	1616.27	1616.27	1616.27	1616.27	1616.27	1616.27	0	0
1191.19	295.49	1778.82	1778.82	1778.82	1778.82	1778.82	1778.82	1778.82	0	0
1191.39	295.29	1645.57	1645.57	1645.57	1645.57	1645.57	1645.57	1645.57	0	0
1191.59	295.09	1343.05	1343.05	1343.05	1343.05	1343.05	1343.05	1343.05	0	0
1191.79	294.89	1397.23	1397.23	1397.23	1397.23	1397.23	1397.23	1397.23	0	0
1191.99	294.69	1554.71	1554.71	1554.71	1554.71	1554.71	1554.71	1554.71	0	0
1192.19	294.49	1324.24	1324.24	1324.24	1324.24	1324.24	1324.24	1324.24	0	0
1192.39	294.29	961.536	961.536	961.536	961.536	961.536	961.536	961.536	0	0
1192.59	294.09	998.268	998.268	998.268	998.268	998.268	998.268	998.268	0	0
1192.79	293.89	826.786	826.786	826.786	826.786	826.786	826.786	826.786	0	0
1192.99	293.69	1114.45	1114.45	1114.45	1114.45	1114.45	1114.45	1114.45	0	0
1193.19	293.49	761.992	761.992	761.992	761.992	761.992	761.992	761.992	0	0
1193.39	293.29	833.414	833.414	833.414	833.414	833.414	833.414	833.414	0	0
1193.59	293.09	650.31	650.31	650.31	650.31	650.31	650.31	650.31	0	0
1193.79	292.89	852.648	852.648	852.648	852.648	852.648	852.648	852.648	0	0
1193.99	292.69	619.028	619.028	619.028	619.028	619.028	619.028	619.028	0	0
1194.19	292.49	703.808	703.808	703.808	703.808	703.81	703.808	703.81	0	0
1194.39	292.29	522.338	522.338	522.338	522.338	522.346	522.338	522.346	0	0
1194.59	292.09	525.426	525.426	525.426	525.426	525.456	525.426	525.456	0	0
1194.79	291.89	620.822	620.822	620.822	620.822	620.925	620.822	620.925	0	0
1194.99	291.69	568.406	568.406	568.406	568.406	568.734	568.406	568.734	0	0
1195.19	291.49	428.964	428.964	428.964	428.964	429.949	428.964	429.949	0	0
1195.39	291.29	542.718	542.718	542.718	542.719	545.461	542.718	545.462	0	0
1195.59	291.09	559.024	600.536	600.536	600.54	607.73	600.536	607.734	0.460665	2.43549
1195.79	290.89	427.36	600.498	600.498	600.51	618.019	600.498	618.032	2.06241	9.53361
1195.99	290.69	492.79	600.457	600.457	600.5	640.545	600.457	640.588	1.48876	7.38992
1196.19	290.49	474.59	600.405	600.405	600.543	685.654	600.405	685.793	2.16783	10.5601
1196.39	290.29	560.352	600.396	600.396	600.806	769.974	600.396	770.384	1.98399	10.5016
1196.59	290.09	683.618	600.363	600.364	601.507	913.193	600.363	914.337	1.97316	11.536
1196.79	289.89	856.91	600.284	600.287	603.246	1135.76	600.284	1138.73	2.15271	14.0909
1196.99	289.69	1423.68	600.037	600.05	607.251	1443.01	600.037	1450.24	0.157398	1.32798
1197.19	289.49	2048.16	599.581	599.627	615.918	1812.59	599.581	1828.97	-1.08297	-10.9593
1197.39	289.29	2346.22	599.059	599.222	633.722	2178.76	599.059	2213.58	-0.612306	-6.6319
1197.59	289.09	2568.68	598.408	598.946	666.76	2442.25	598.408	2511.14	-0.253846	-2.8768
1197.79	288.89	3029.62	597.612	599.266	723.17	2515.38	597.612	2642.6	-1.57228	-19.3512
1197.99	288.69	2478.5	596.944	601.702	810.15	2368.71	596.944	2586.67	0.485852	5.40858
1198.19	288.49	2519.74	596.324	609.108	929.786	2057.5	596.324	2403.74	-0.51672	-5.79987
1198.39	288.29	2212	595.762	627.893	1071.69	1679.27	595.762	2187.33	-0.117307	-1.23368
1198.59	288.09	1754.24	595.329	670.725	1209.57	1324.77	595.327	2014.42	1.389	13.0086
1198.79	287.89	1891.52	594.9	760.276	1305.43	1045.08	594.886	1921.03	0.151734	1.47561
1198.99	287.69	1736.86	594.546	932.608	1325.79	850.607	594.456	1920.19	0.983632	9.16642
1199.19	287.49	2347.48	594.42	1238.03	1263.38	729.273	593.894	2043.42	-1.40329	-15.2032
1199.39	287.29	2233.44	595.997	1731.09	1140.19	659.782	593.304	2347.14	0.537992	5.68522
1199.59	287.09	3003.48	604.771	2448.92	994.666	623.035	592.52	2893.83	-0.447399	-5.48267
1199.79	286.89	4222.96	640.903	3367.34	860.146	604.422	591.374	3698.68	-1.804	-26.2138
1199.99	286.69	4324.92	768.192	4362.49	754.659	595.27	590.041	4710.49	1.31098	19.2784
1200.19	286.49	5986.16	1161.05	5202.7	681.459	590.252	588.3	5870.56	-0.334081	-5.77978
1200.39	286.29	6586.32	2221.86	5623.34	635.213	587.026	586.342	7308.41	1.98954	36.1043
1200.59	286.09	9859.26	4723.98	5472.92	607.337	583.662	583.44	9637.58	-0.499212	-11.0839
1200.79	285.89	14528.6	9832	4802.83	589.978	579.16	579.092	14066.7	-0.856894	-23.0953
1200.99	285.69	22611.4	18670.5	3842.48	576.911	572.292	572.273	21945.4	-0.990384	-33.3006
1201.19	285.49	32933.4	31104.2	2851.72	563.788	561.95	561.945	33395.8	0.569758	23.1203
1201.39	285.29	45744.4	44102.4	2010.54	547.956	547.271	547.269	45566.4	-0.186112	-8.90077
1201.59	285.09	51537	51962.4	1390.98	530.051	529.813	529.812	52823.8	1.26744	64.3386
1201.79	284.89	50934	50180.1	980.624	512.044	511.966	511.966	50648.9	-0.282506	-14.2566
1201.99	284.69	41163	39818.5	734.053	496.575	496.552	496.552	40056	-1.22004	-55.3494
1202.19	284.49	25440.4	26436.2	598.584	486.668	486.662	486.662	26548.1	1.55289	55.3843
1202.39	284.29	14515	15067.4	530.29	480.911	480.91	480.91	15116.8	1.11695	30.0903
1202.59	284.09	7398.06	7587.9	498.223	477.944	477.944	477.944	7608.18	0.546257	10.5061
1202.79	283.89	4425.24	3517.98	484.167	476.348	476.348	476.348	3525.8	-3.02336	-44.9721
1202.99	283.69	2470.34	1627.17	478.315	475.513	475.513	475.513	1629.98	-3.78072	-42.0182
1203.19	283.49	1629.52	863.029	476.014	475.069	475.069	475.069	863.973	-4.24059	-38.2773
1203.39	283.29	1264.16	591	475.063	474.768	474.768	474.768	591.295	-4.23168	-33.6433
1203.59	283.09	992.288	505.465	474.588	474.501	474.501	474.501	505.552	-3.45509	-24.3368
1203.79	282.89	759.206	481.666	474.363	474.339	474.339	474.339	481.69	-2.25213	-13.8758
1203.99	282.69	835.402	475.761	474.221	474.214	474.214	474.214	475.767	-2.78227	-17.9817
1204.19	282.49	825.382	474.386	474.097	474.095	474.095	474.095	474.388	-2.73185	-17.5497
1204.39	282.29	736.25	474.041	473.993	473.992	473.992	473.992	474.041	-2.16082	-13.1104
1204.59	282.09	543.646	473.956	473.949	473.948	473.948	473.948	473.956	-0.668342	-3.48451
1204.79	281.89	515.116	473.92	473.919	473.919	473.919	473.919	473.92	-0.405872	-2.05981
1204.99	281.69	533.566	473.904	473.904	473.904	473.904	473.904	473.904	-0.577546	-2.98309
1205.19	281.49	403.078	473.885	473.885	473.885	473.885	473.885	473.885	0.788613	3.54033
1205.39	281.29	457.058	457.058	457.058	457.058	457.058	457.058	457.058	0	0
1205.59	281.09	344.556	344.556	344.556	344.556	344.556	344.556	344.556	0	0
1205.79	280.89	502.968	502.968	502.968	502.968	502.968	502.968	502.968	0	0
1205.99	280.69	333.978	333.978	333.978	333.978	333.978	333.978	333.978	0	0
1206.19	280.49	372.924	372.924	372.924	372.924	372.924	372.924	372.924	0	0
1206.39	280.29	240.186	240.186	240.186	240.186	240.186	240.186	240.186	0	0
1206.59	280.09	308.6	308.6	308.6	308.6	308.6	308.6	308.6	0	0
1206.79	279.89	255.46	255.46	255.46	255.46	255.46	255.46	255.46	0	0
1206.99	279.69	205.224	205.224	205.224	205.224	205.224	205.224	205.224	0	0
1207.19	279.49	435.968	435.968	435.968	435.968	435.968	435.968	435.968	0	0
1207.39	279.29	247.048	247.048	247.048	247.048	247.048	247.048	247.048	0	0
1207.59	279.09	219.136	219.136	219.136	219.136	219.136	219.136	219.136	0	0
1207.79	278.89	306.244	306.244	306.244	306.244	306.244	306.244	306.244	0	0
1207.99	278.69	144.464	144.464	144.464	144.464	144.464	144.464	144.464	0	0