Folder: stickleback_plastic_degradation/XPS/XPS (part 9)

File: 250418_C-3.1.csv
C1s Scan
	Characteristic Energy eV	1486.68	Acquisition Time s	0.05
KE_C1s Scan	BE_C1s Scan	CPS_C1s Scan	C-C/C-H_1_C1s Scan	C-O_2_C1s Scan	C=O_3_C1s Scan	O-C=O_4_C1s Scan	Background_C1s Scan	Envelope_C1s Scan	Normalised_Residual_C1s Scan	Residual_C1s Scan
1189	297.678	2106.14	2106.14	2106.14	2106.14	2106.14	2106.14	2106.14	0	0
1189.2	297.478	1955.83	1955.83	1955.83	1955.83	1955.83	1955.83	1955.83	0	0
1189.4	297.278	2004.32	2004.32	2004.32	2004.32	2004.32	2004.32	2004.32	0	0
1189.6	297.078	1882.53	1882.53	1882.53	1882.53	1882.53	1882.53	1882.53	0	0
1189.8	296.878	1717.99	1717.99	1717.99	1717.99	1717.99	1717.99	1717.99	0	0
1190	296.678	1750.88	1750.88	1750.88	1750.88	1750.88	1750.88	1750.88	0	0
1190.2	296.478	1971.25	1971.25	1971.25	1971.25	1971.25	1971.25	1971.25	0	0
1190.4	296.278	1878.56	1878.56	1878.56	1878.56	1878.56	1878.56	1878.56	0	0
1190.6	296.078	1729.54	1729.54	1729.54	1729.54	1729.54	1729.54	1729.54	0	0
1190.8	295.878	1484.02	1484.02	1484.02	1484.02	1484.02	1484.02	1484.02	0	0
1191	295.678	1409.27	1409.27	1409.27	1409.27	1409.27	1409.27	1409.27	0	0
1191.2	295.478	1417.89	1417.89	1417.89	1417.89	1417.89	1417.89	1417.89	0	0
1191.4	295.278	1383.06	1383.06	1383.06	1383.06	1383.06	1383.06	1383.06	0	0
1191.6	295.078	1467.65	1467.65	1467.65	1467.65	1467.65	1467.65	1467.65	0	0
1191.8	294.878	1399.81	1399.81	1399.81	1399.81	1399.81	1399.81	1399.81	0	0
1192	294.678	995.96	995.96	995.96	995.96	995.96	995.96	995.96	0	0
1192.2	294.478	1052.58	1052.58	1052.58	1052.58	1052.58	1052.58	1052.58	0	0
1192.4	294.278	1461.34	1461.34	1461.34	1461.34	1461.34	1461.34	1461.34	0	0
1192.6	294.078	1014.23	1014.23	1014.23	1014.23	1014.23	1014.23	1014.23	0	0
1192.8	293.878	868.312	868.312	868.312	868.312	868.312	868.312	868.312	0	0
1193	293.678	910.638	910.638	910.638	910.638	910.638	910.638	910.638	0	0
1193.2	293.478	931.7	931.7	931.7	931.7	931.7	931.7	931.7	0	0
1193.4	293.278	858.664	858.664	858.664	858.664	858.664	858.664	858.664	0	0
1193.6	293.078	700.09	700.09	700.09	700.09	700.09	700.09	700.09	0	0
1193.8	292.878	515.984	515.984	515.984	515.984	515.984	515.984	515.984	0	0
1194	292.678	592.218	592.218	592.218	592.218	592.218	592.218	592.218	0	0
1194.2	292.478	636.054	636.054	636.054	636.054	636.056	636.054	636.056	0	0
1194.4	292.278	524.322	524.322	524.322	524.322	524.328	524.322	524.328	0	0
1194.6	292.078	581.414	581.414	581.414	581.414	581.435	581.414	581.435	0	0
1194.8	291.878	423.16	423.16	423.16	423.16	423.231	423.16	423.231	0	0
1195	291.678	515.196	515.196	515.196	515.196	515.419	515.196	515.419	0	0
1195.2	291.478	405.974	405.974	405.974	405.974	406.622	405.974	406.622	0	0
1195.4	291.278	433.246	433.246	433.246	433.247	435.009	433.246	435.01	0	0
1195.6	291.078	338.076	393.293	393.293	393.296	397.777	393.293	397.78	0.726077	2.98521
1195.8	290.878	396.604	393.302	393.302	393.314	403.955	393.302	403.966	0.0826643	0.368113
1196	290.678	649.962	393.384	393.384	393.424	417.038	393.384	417.078	-2.04259	-11.6442
1196.2	290.478	444.194	393.402	393.402	393.529	442.38	393.402	442.508	-0.0178897	-0.0843093
1196.4	290.278	460.764	393.428	393.428	393.809	487.943	393.428	488.323	0.287082	1.37794
1196.6	290.078	578.016	393.543	393.544	394.603	562.807	393.543	563.867	-0.131596	-0.707455
1196.8	289.878	709.206	393.634	393.636	396.398	673.905	393.634	676.672	-0.273168	-1.62668
1197	289.678	718.008	393.761	393.772	400.493	819.702	393.761	826.444	0.904889	5.42182
1197.2	289.478	1048.97	394.047	394.086	409.38	983.335	394.047	998.707	-0.34703	-2.51324
1197.4	289.278	1246.19	394.429	394.566	426.997	1129.46	394.429	1162.16	-0.532251	-4.2014
1197.6	289.078	1121.68	394.915	395.361	459.46	1214.16	394.915	1279.15	1.05132	7.87327
1197.8	288.878	1256.81	395.308	396.673	514.138	1207.55	395.308	1327.74	0.447403	3.54666
1198	288.678	1486.31	395.78	399.679	598.5	1111.96	395.78	1318.58	-0.972848	-8.38658
1198.2	288.478	1372.07	396.264	406.68	714.469	961.428	396.264	1290.05	-0.495112	-4.10087
1198.4	288.278	1173.88	396.672	422.668	852.956	799.29	396.672	1281.57	0.702803	5.38433
1198.6	288.078	1116.56	397.071	457.73	989.016	658.446	397.071	1311.05	1.30148	9.72443
1198.8	287.878	1326.41	397.578	529.683	1085.79	553.619	397.576	1373.94	0.291808	2.37641
1199	287.678	1358.38	398.008	666.504	1110.7	484.077	397.995	1465.31	0.648732	5.34639
1199.2	287.478	1778.42	398.65	906.224	1054.33	442.736	398.554	1606.28	-0.91274	-8.60695
1199.4	287.278	2067.48	399.972	1290.06	938.029	420.44	399.354	1850.44	-1.06734	-10.852
1199.6	287.078	2455.06	403.814	1841.76	798.332	409.74	400.324	2252.68	-0.913338	-10.1192
1199.8	286.878	3233.98	418.829	2538.97	668.603	405.436	401.521	2827.27	-1.59918	-20.3353
1200	286.678	3390.52	477.762	3280.31	567.31	404.495	402.968	3520.97	0.500962	6.52263
1200.2	286.478	4081.68	686.775	3887.41	497.978	405.287	404.733	4263.25	0.63548	9.07834
1200.4	286.278	5048.76	1336.87	4168.35	456.036	407.069	406.879	5147.69	0.311315	4.94626
1200.6	286.078	6869.02	3089.63	4019.6	433.848	409.837	409.777	6723.58	-0.392384	-7.27183
1200.8	285.878	10992	7110.47	3500.52	425.197	414.189	414.172	10207.9	-1.67243	-39.2078
1201	285.678	17240.1	14810.5	2787.54	426.37	421.675	421.67	17181	-0.1005	-2.95067
1201.2	285.478	28337.8	26620.6	2075.62	435.852	433.973	433.971	28264.2	-0.0978304	-3.68249
1201.4	285.278	40926.2	39864.5	1493.65	453.216	452.517	452.516	40906.3	-0.0219553	-0.993172
1201.6	285.078	48937.4	48261.4	1083.31	475.914	475.67	475.67	48869.3	-0.0688829	-3.40735
1201.8	284.878	49243	46428.2	828.428	499.671	499.592	499.592	46757.1	-2.50489	-124.293
1202	284.678	36134.4	35626.3	683.935	518.74	518.715	518.715	35791.6	-0.403295	-17.1423
1202.2	284.478	21354.6	22335.9	608.398	530.855	530.848	530.848	22413.4	1.62021	52.9422
1202.4	284.278	10942.6	11836.8	571.267	537.379	537.377	537.377	11870.7	1.98393	46.4056
1202.6	284.078	5804.82	5526.8	554.523	540.639	540.638	540.638	5540.69	-0.775193	-13.2065
1202.8	283.878	3739.76	2441.3	547.644	542.35	542.35	542.35	2446.6	-4.72843	-64.6582
1203	283.678	1832.16	1173.79	545.101	543.204	543.204	543.204	1175.69	-3.42944	-32.8239
1203.2	283.478	1688.01	726.403	544.391	543.76	543.76	543.76	727.034	-5.2301	-48.0488
1203.4	283.278	1254.92	590.316	544.359	544.161	544.161	544.161	590.514	-4.19382	-33.2202
1203.6	283.078	1005.67	554.595	544.471	544.414	544.414	544.414	554.653	-3.18016	-22.5508
1203.8	282.878	724.996	546.518	544.56	544.545	544.545	544.545	546.534	-1.48205	-8.92309
1204	282.678	987.928	545.069	544.74	544.736	544.736	544.736	545.073	-3.15053	-22.1428
1204.2	282.478	827.278	544.868	544.82	544.819	544.819	544.819	544.869	-2.19552	-14.1204
1204.4	282.278	636.346	544.915	544.909	544.909	544.909	544.909	544.916	-0.810454	-4.57151
1204.6	282.078	590.538	544.956	544.956	544.956	544.956	544.956	544.956	-0.419421	-2.27908
1204.8	281.878	544.98	544.956	544.956	544.956	544.956	544.956	544.956	-0.000228113	-0.00119076
1205	281.678	505.138	505.138	505.138	505.138	505.138	505.138	505.138	0	0
1205.2	281.478	350.196	350.196	350.196	350.196	350.196	350.196	350.196	0	0
1205.4	281.278	434.926	434.926	434.926	434.926	434.926	434.926	434.926	0	0
1205.6	281.078	376.856	376.856	376.856	376.856	376.856	376.856	376.856	0	0
1205.8	280.878	361.202	361.202	361.202	361.202	361.202	361.202	361.202	0	0
1206	280.678	423.152	423.152	423.152	423.152	423.152	423.152	423.152	0	0
1206.2	280.478	276.434	276.434	276.434	276.434	276.434	276.434	276.434	0	0
1206.4	280.278	329.928	329.928	329.928	329.928	329.928	329.928	329.928	0	0
1206.6	280.078	258.18	258.18	258.18	258.18	258.18	258.18	258.18	0	0
1206.8	279.878	286.594	286.594	286.594	286.594	286.594	286.594	286.594	0	0
1207	279.678	272.33	272.33	272.33	272.33	272.33	272.33	272.33	0	0
1207.2	279.478	391.324	391.324	391.324	391.324	391.324	391.324	391.324	0	0
1207.4	279.278	254.796	254.796	254.796	254.796	254.796	254.796	254.796	0	0
1207.6	279.078	389.372	389.372	389.372	389.372	389.372	389.372	389.372	0	0
1207.8	278.878	101.949	101.949	101.949	101.949	101.949	101.949	101.949	0	0
1208	278.678	225.836	225.836	225.836	225.836	225.836	225.836	225.836	0	0

File: 250418_C-3.2.csv
C1s Scan
	Characteristic Energy eV	1486.68	Acquisition Time s	0.05
KE_C1s Scan	BE_C1s Scan	CPS_C1s Scan	C-C/C-H_1_C1s Scan	C-O_2_C1s Scan	C=O_3_C1s Scan	O-C=O_4_C1s Scan	Background_C1s Scan	Envelope_C1s Scan	Normalised_Residual_C1s Scan	Residual_C1s Scan
1188.93	297.752	1729.25	1729.25	1729.25	1729.25	1729.25	1729.25	1729.25	0	0
1189.13	297.552	1711.21	1711.21	1711.21	1711.21	1711.21	1711.21	1711.21	0	0
1189.33	297.352	1679.65	1679.65	1679.65	1679.65	1679.65	1679.65	1679.65	0	0
1189.53	297.152	1908.98	1908.98	1908.98	1908.98	1908.98	1908.98	1908.98	0	0
1189.73	296.952	1559.22	1559.22	1559.22	1559.22	1559.22	1559.22	1559.22	0	0
1189.93	296.752	1632.29	1632.29	1632.29	1632.29	1632.29	1632.29	1632.29	0	0
1190.13	296.552	1648.52	1648.52	1648.52	1648.52	1648.52	1648.52	1648.52	0	0
1190.33	296.352	1648.37	1648.37	1648.37	1648.37	1648.37	1648.37	1648.37	0	0
1190.53	296.152	1529.63	1529.63	1529.63	1529.63	1529.63	1529.63	1529.63	0	0
1190.73	295.952	1205.09	1205.09	1205.09	1205.09	1205.09	1205.09	1205.09	0	0
1190.93	295.752	1224.07	1224.07	1224.07	1224.07	1224.07	1224.07	1224.07	0	0
1191.13	295.552	1184.34	1184.34	1184.34	1184.34	1184.34	1184.34	1184.34	0	0
1191.33	295.352	1148.53	1148.53	1148.53	1148.53	1148.53	1148.53	1148.53	0	0
1191.53	295.152	1061.38	1061.38	1061.38	1061.38	1061.38	1061.38	1061.38	0	0
1191.73	294.952	1091.02	1091.02	1091.02	1091.02	1091.02	1091.02	1091.02	0	0
1191.93	294.752	1073.72	1073.72	1073.72	1073.72	1073.72	1073.72	1073.72	0	0
1192.13	294.552	870.492	870.492	870.492	870.492	870.492	870.492	870.492	0	0
1192.33	294.352	864.152	864.152	864.152	864.152	864.152	864.152	864.152	0	0
1192.53	294.152	922.686	922.686	922.686	922.686	922.686	922.686	922.686	0	0
1192.73	293.952	956.39	956.39	956.39	956.39	956.39	956.39	956.39	0	0
1192.93	293.752	897.982	897.982	897.982	897.982	897.982	897.982	897.982	0	0
1193.13	293.552	726.336	726.336	726.336	726.336	726.336	726.336	726.336	0	0
1193.33	293.352	696.232	696.232	696.232	696.232	696.232	696.232	696.232	0	0
1193.53	293.152	575.038	575.038	575.038	575.038	575.038	575.038	575.038	0	0
1193.73	292.952	553.416	553.416	553.416	553.416	553.416	553.416	553.416	0	0
1193.93	292.752	413.142	413.142	413.142	413.142	413.142	413.142	413.142	0	0
1194.13	292.552	611.032	611.032	611.032	611.032	611.032	611.032	611.032	0	0
1194.33	292.352	416.46	416.46	416.46	416.46	416.46	416.46	416.46	0	0
1194.53	292.152	394.088	394.088	394.088	394.088	394.09	394.088	394.09	0	0
1194.73	291.952	367.554	367.554	367.554	367.554	367.561	367.554	367.561	0	0
1194.93	291.752	337.644	337.644	337.644	337.644	337.669	337.644	337.669	0	0
1195.13	291.552	423.162	423.162	423.162	423.162	423.25	423.162	423.25	0	0
1195.33	291.352	447.974	447.974	447.974	447.974	448.258	447.974	448.258	0	0
1195.53	291.152	267.778	267.778	267.778	267.779	268.619	267.778	268.62	0	0
1195.73	290.952	274.64	291.343	291.343	291.346	293.648	291.343	293.651	0.256514	0.950556
1195.93	290.752	317.6	291.348	291.348	291.361	297.188	291.348	297.201	-0.255948	-1.01995
1196.13	290.552	451.998	291.36	291.36	291.41	305.027	291.36	305.077	-1.54526	-7.34607
1196.33	290.352	290.958	291.363	291.363	291.536	320.865	291.363	321.038	0.394323	1.50401
1196.53	290.152	481.114	291.374	291.374	291.932	349.976	291.374	350.533	-1.33119	-6.52903
1196.73	289.952	342.866	291.385	291.385	293.044	398.04	291.385	399.699	0.686318	2.84166
1196.93	289.752	444.822	291.399	291.4	295.966	468.083	291.399	472.651	0.295041	1.39143
1197.13	289.552	530.656	291.419	291.423	303.037	555.367	291.419	566.989	0.352675	1.81663
1197.33	289.352	577.76	291.454	291.47	318.762	642.962	291.454	670.287	0.860758	4.62637
1197.53	289.152	608.358	291.489	291.556	350.724	703.902	291.489	763.203	1.40379	7.74224
1197.73	288.952	905.632	291.54	291.789	409.815	714.263	291.54	832.787	-0.541265	-3.64226
1197.93	288.752	953.166	291.602	292.458	508.188	669.707	291.602	887.15	-0.478137	-3.30082
1198.13	288.552	1069.42	291.669	294.389	652.802	588.591	291.669	952.445	-0.799815	-5.84854
1198.33	288.352	922.986	291.723	299.714	834.911	498.668	291.723	1049.85	0.933718	6.34305
1198.53	288.152	1467.22	291.82	313.521	1020.5	421.36	291.82	1171.74	-1.7249	-14.774
1198.73	287.952	998.4	291.892	346.368	1153.64	365.467	291.892	1281.69	2.00479	14.1647
1198.93	287.752	1267.04	291.987	418.311	1182.88	330.187	291.981	1347.42	0.504947	4.01907
1199.13	287.552	1432.32	292.126	562.327	1095.76	310.311	292.082	1384.27	-0.283892	-2.40247
1199.33	287.352	1693.63	292.517	824.083	928.344	300.232	292.215	1468.53	-1.22306	-11.2549
1199.53	287.152	2047.4	294.164	1251.4	738.844	295.612	292.357	1702.95	-1.7022	-17.2225
1199.73	286.952	2037.1	301.952	1865.01	573.705	293.722	292.501	2156.88	0.59343	5.98909
1199.93	286.752	2876.5	335.995	2614.39	453.292	293.139	292.715	2818.67	-0.241115	-2.89162
1200.13	286.552	3406.9	465.591	3343.84	376.739	293.094	292.958	3600.39	0.741246	9.67447
1200.33	286.352	4218.28	893.52	3821.37	333.511	293.364	293.323	4461.8	0.838395	12.1759
1200.53	286.152	5834.34	2111.52	3857.31	311.557	293.793	293.782	5692.83	-0.414263	-7.0755
1200.73	285.952	8366.46	5079.97	3436.62	301.733	294.475	294.472	8229.38	-0.335102	-6.85382
1200.93	285.752	14478.8	11163.2	2730.38	298.349	295.608	295.607	13600.7	-1.63184	-43.9065
1201.13	285.552	22320.8	21264	1973.89	298.464	297.507	297.507	22941.4	0.928823	31.0294
1201.33	285.352	32941.6	33945	1338.15	300.755	300.446	300.446	34983	2.51498	102.068
1201.53	285.152	43979	44043.7	887.622	304.428	304.336	304.336	44627.1	0.691036	32.4047
1201.73	284.952	46496.8	45390.9	608.538	308.676	308.651	308.651	45690.8	-0.835781	-40.2985
1201.93	284.752	38041.2	37043.5	454.273	312.445	312.439	312.439	37185.4	-0.981172	-42.7915
1202.13	284.552	23394	24404.1	376.815	314.933	314.931	314.931	24466	1.56722	53.6001
1202.33	284.352	12144.6	13371.1	341.278	316.337	316.337	316.337	13396	2.53915	62.57
1202.53	284.152	6303.54	6299.22	326.311	317.019	317.019	317.019	6308.52	0.014013	0.248776
1202.73	283.952	2565.9	2674.55	320.509	317.308	317.308	317.308	2677.75	0.493735	5.59241
1202.93	283.752	2417.84	1123.89	318.536	317.517	317.517	317.517	1124.91	-5.87959	-64.6466
1203.13	283.552	1393.42	557.807	317.948	317.648	317.648	317.648	558.107	-5.00374	-41.7658
1203.33	283.352	1313.22	380.09	317.833	317.752	317.752	317.752	380.172	-5.75733	-46.6526
1203.53	283.152	1008.99	331.919	317.842	317.821	317.821	317.821	331.939	-4.76608	-33.8523
1203.73	282.952	880.482	320.661	317.876	317.871	317.871	317.871	320.666	-4.21862	-27.9908
1203.93	282.752	731.494	318.397	317.916	317.915	317.915	317.915	318.398	-3.41531	-20.6548
1204.13	282.552	682.9	318.024	317.952	317.952	317.952	317.952	318.024	-3.12213	-18.2438
1204.33	282.352	566.334	317.984	317.975	317.975	317.975	317.975	317.984	-2.33353	-12.4175
1204.53	282.152	636.076	317.996	317.995	317.995	317.995	317.995	317.996	-2.82011	-15.904
1204.73	281.952	487.266	318.012	318.011	318.011	318.011	318.011	318.012	-1.71452	-8.46272
1204.93	281.752	386.72	318.021	318.021	318.021	318.021	318.021	318.021	-0.781157	-3.43496
1205.13	281.552	261.538	318.032	318.032	318.032	318.032	318.032	318.032	0.781121	2.82469
1205.33	281.352	369.564	369.564	369.564	369.564	369.564	369.564	369.564	0	0
1205.53	281.152	206.078	206.078	206.078	206.078	206.078	206.078	206.078	0	0
1205.73	280.952	281.11	281.11	281.11	281.11	281.11	281.11	281.11	0	0
1205.93	280.752	353.354	353.354	353.354	353.354	353.354	353.354	353.354	0	0
1206.13	280.552	120.898	120.898	120.898	120.898	120.898	120.898	120.898	0	0
1206.33	280.352	234.292	234.292	234.292	234.292	234.292	234.292	234.292	0	0
1206.53	280.152	281.964	281.964	281.964	281.964	281.964	281.964	281.964	0	0
1206.73	279.952	218.588	218.588	218.588	218.588	218.588	218.588	218.588	0	0
1206.93	279.752	183.288	183.288	183.288	183.288	183.288	183.288	183.288	0	0
1207.13	279.552	190.615	190.615	190.615	190.615	190.615	190.615	190.615	0	0
1207.33	279.352	347.24	347.24	347.24	347.24	347.24	347.24	347.24	0	0
1207.53	279.152	223.03	223.03	223.03	223.03	223.03	223.03	223.03	0	0
1207.73	278.952	211.534	211.534	211.534	211.534	211.534	211.534	211.534	0	0
1207.93	278.752	163.602	163.602	163.602	163.602	163.602	163.602	163.602	0	0