Folder: stickleback_plastic_degradation/XPS/XPS (part 6)

File: 241019_C-3.1.csv
C1s Scan
	Characteristic Energy eV	1486.68	Acquisition Time s	0.05
KE_C1s Scan	BE_C1s Scan	CPS_C1s Scan	C-C/C-H_1_C1s Scan	C-O_2_C1s Scan	C=O_3_C1s Scan	O-C=O_4_C1s Scan	Background_C1s Scan	Envelope_C1s Scan	Normalised_Residual_C1s Scan	Residual_C1s Scan
1188.94	297.739	459.914	459.914	459.914	459.914	459.914	459.914	459.914	0	0
1189.14	297.539	475.504	475.504	475.504	475.504	475.504	475.504	475.504	0	0
1189.34	297.339	473.77	473.77	473.77	473.77	473.77	473.77	473.77	0	0
1189.54	297.139	409.896	409.896	409.896	409.896	409.896	409.896	409.896	0	0
1189.74	296.939	511.28	511.28	511.28	511.28	511.28	511.28	511.28	0	0
1189.94	296.739	408.62	408.62	408.62	408.62	408.62	408.62	408.62	0	0
1190.14	296.539	272.64	272.64	272.64	272.64	272.64	272.64	272.64	0	0
1190.34	296.339	401.532	401.532	401.532	401.532	401.532	401.532	401.532	0	0
1190.54	296.139	405.63	405.63	405.63	405.63	405.63	405.63	405.63	0	0
1190.74	295.939	338.468	338.468	338.468	338.468	338.468	338.468	338.468	0	0
1190.94	295.739	357.408	357.408	357.408	357.408	357.408	357.408	357.408	0	0
1191.14	295.539	434.508	434.508	434.508	434.508	434.508	434.508	434.508	0	0
1191.34	295.339	225.878	225.878	225.878	225.878	225.878	225.878	225.878	0	0
1191.54	295.139	459.756	459.756	459.756	459.756	459.756	459.756	459.756	0	0
1191.74	294.939	303.234	303.234	303.234	303.234	303.234	303.234	303.234	0	0
1191.94	294.739	180.136	180.136	180.136	180.136	180.136	180.136	180.136	0	0
1192.14	294.539	260.64	260.64	260.64	260.64	260.64	260.64	260.64	0	0
1192.34	294.339	318.822	318.822	318.822	318.822	318.822	318.822	318.822	0	0
1192.54	294.139	310.208	310.208	310.208	310.208	310.208	310.208	310.208	0	0
1192.74	293.939	222.802	222.802	222.802	222.802	222.802	222.802	222.802	0	0
1192.94	293.739	124.56	124.56	124.56	124.56	124.56	124.56	124.56	0	0
1193.14	293.539	172.378	172.378	172.378	172.378	172.378	172.378	172.378	0	0
1193.34	293.339	266.1	266.1	266.1	266.1	266.1	266.1	266.1	0	0
1193.54	293.139	135.665	135.665	135.665	135.665	135.665	135.665	135.665	0	0
1193.74	292.939	93.028	93.028	93.028	93.028	93.028	93.028	93.028	0	0
1193.94	292.739	80.7072	80.7072	80.7072	80.7072	80.7072	80.7072	80.7072	0	0
1194.14	292.539	119.954	119.954	119.954	119.954	119.954	119.954	119.954	0	0
1194.34	292.339	40.6066	40.6066	40.6066	40.6066	40.6067	40.6066	40.6067	0	0
1194.54	292.139	72.6858	72.6858	72.6858	72.6858	72.6861	72.6858	72.6861	0	0
1194.74	291.939	116.367	116.367	116.367	116.367	116.369	116.367	116.369	0	0
1194.94	291.739	90.6098	90.6098	90.6098	90.6098	90.6159	90.6098	90.6159	0	0
1195.14	291.539	89.1336	89.1336	89.1336	89.1336	89.1559	89.1336	89.1559	0	0
1195.34	291.339	70.3014	70.3014	70.3014	70.3014	70.3773	70.3014	70.3774	0	0
1195.54	291.139	98.3254	98.3254	98.3254	98.3255	98.5636	98.3254	98.5638	0	0
1195.74	290.939	103.346	79.6827	79.6827	79.6833	80.3724	79.6827	80.3731	-0.50531	-1.14866
1195.94	290.739	33.0504	79.7026	79.7026	79.7053	81.5457	79.7026	81.5483	1.88634	2.4249
1196.14	290.539	62.7838	79.7152	79.7152	79.7257	84.2587	79.7152	84.2692	0.606323	1.07427
1196.34	290.339	85.4286	79.7345	79.7345	79.7728	90.0579	79.7345	90.0962	0.112921	0.233379
1196.54	290.139	158.692	79.7566	79.7566	79.8856	101.333	79.7566	101.462	-1.01586	-2.86152
1196.74	289.939	127.833	79.7666	79.7666	80.1674	121.105	79.7666	121.506	-0.125135	-0.316363
1196.94	289.739	172.142	79.7902	79.7902	80.9396	151.983	79.7902	153.133	-0.323974	-0.950472
1197.14	289.539	69.0538	79.8105	79.811	82.8532	193.778	79.8105	196.821	3.43803	6.38836
1197.34	289.339	207.802	79.8517	79.8539	87.2824	240.699	79.8517	248.132	0.625591	2.01651
1197.54	289.139	351.602	79.9538	79.9631	96.6768	280.414	79.9538	297.146	-0.649386	-2.72279
1197.74	288.939	496.816	80.0651	80.102	114.675	298.36	80.0651	333.007	-1.64334	-8.19047
1197.94	288.739	411.504	80.1703	80.3052	145.796	286.89	80.1703	352.65	-0.64874	-2.94268
1198.14	288.539	332.666	80.2647	80.7194	193.598	251.025	80.2647	364.814	0.394124	1.60739
1198.34	288.339	438.316	80.366	81.7808	257.087	204.593	80.3659	382.73	-0.59369	-2.77932
1198.54	288.139	362.24	80.4757	84.5381	326.481	161.051	80.4752	411.12	0.574274	2.44401
1198.74	287.939	413.326	80.6124	91.3766	382.568	127.746	80.6093	440.475	0.298599	1.35744
1198.94	287.739	433.224	80.778	107.086	404.287	105.853	80.76	455.724	0.241718	1.125
1199.14	287.539	459.046	81.0001	140.222	382.29	93.1382	80.9058	453.933	-0.05336	-0.25564
1199.34	287.339	530.752	81.5174	203.981	326.156	86.5539	81.0724	454.991	-0.735334	-3.78805
1199.54	287.139	392.526	83.0772	314.54	256.94	83.4542	81.1911	494.439	1.15021	5.09563
1199.74	286.939	489.104	88.5296	484.879	193.866	82.1993	81.3375	605.461	1.17646	5.81783
1199.94	286.739	866.944	106.356	711.842	146.719	81.959	81.6561	801.908	-0.493906	-3.25181
1200.14	286.539	1109.7	158.598	960.678	116.252	82.0841	81.9859	1071.65	-0.255408	-1.90249
1200.34	286.339	1693.1	296.934	1162.88	99.0157	82.5097	82.4803	1393.9	-1.62595	-14.96
1200.54	286.139	1697.8	622.669	1242.64	90.3663	83.0364	83.0283	1789.63	0.498354	4.59162
1200.74	285.939	2217.6	1301.26	1165.93	86.7784	83.7794	83.7774	2386.42	0.801597	8.44079
1200.94	285.739	3747.84	2534.53	966.529	86.1575	85.0257	85.0252	3417.17	-1.20778	-16.5334
1201.14	285.539	4745.54	4441.83	719.873	87.1093	86.7152	86.7151	5075.39	1.07067	16.4923
1201.34	285.339	6970.62	6830.82	495.179	89.3016	89.1749	89.1749	7236.95	0.713302	13.3166
1201.54	285.139	9206.8	9016.23	327.473	92.4412	92.4036	92.4036	9251.33	0.103778	2.22661
1201.74	284.939	10424.4	10037.5	220.267	96.3175	96.3072	96.3072	10161.4	-0.575979	-13.1498
1201.94	284.739	8984.06	9349.4	159.648	99.7608	99.7582	99.7582	9409.29	1.00316	21.2614
1202.14	284.539	7993.62	7325.35	129.37	102.762	102.761	102.761	7351.96	-1.60478	-32.0828
1202.34	284.339	5192.32	4911.58	115.89	104.996	104.995	104.995	4922.48	-0.837358	-13.492
1202.54	284.139	2584.3	2882.28	110.211	106.096	106.096	106.096	2886.39	1.32878	15.1046
1202.74	283.939	1661.66	1519.19	108.161	106.726	106.726	106.726	1520.62	-0.773661	-7.05191
1202.94	283.739	800.158	746.573	107.516	107.055	107.055	107.055	747.035	-0.419937	-2.65617
1203.14	283.539	518.012	366.766	107.364	107.227	107.227	107.227	366.903	-1.48459	-7.55544
1203.34	283.339	503.616	202.301	107.425	107.388	107.388	107.388	202.339	-3.00193	-15.0638
1203.54	283.139	270.222	138.698	107.447	107.438	107.438	107.438	138.707	-1.78895	-6.57574
1203.74	282.939	275.656	116.783	107.512	107.51	107.51	107.51	116.785	-2.13967	-7.94356
1203.94	282.739	148.285	110.026	107.55	107.55	107.55	107.55	110.026	-0.702537	-1.91295
1204.14	282.539	89.4836	108.161	107.565	107.565	107.565	107.565	108.161	0.441495	0.933862
1204.34	282.339	159.157	107.709	107.579	107.579	107.579	107.579	107.709	-0.911887	-2.5724
1204.54	282.139	109.271	107.616	107.59	107.59	107.59	107.59	107.616	-0.035401	-0.082747
1204.74	281.939	149.113	107.615	107.611	107.611	107.611	107.611	107.615	-0.759887	-2.07487
1204.94	281.739	125.325	107.616	107.615	107.615	107.615	107.615	107.616	-0.353732	-0.88548
1205.14	281.539	172.953	107.637	107.636	107.636	107.636	107.636	107.637	-1.11056	-3.26581
1205.34	281.339	93.261	107.64	107.64	107.64	107.64	107.64	107.64	0.332943	0.718961
1205.54	281.139	82.3878	82.3878	82.3878	82.3878	82.3878	82.3878	82.3878	0	0
1205.74	280.939	126.152	126.152	126.152	126.152	126.152	126.152	126.152	0	0
1205.94	280.739	83.3584	83.3584	83.3584	83.3584	83.3584	83.3584	83.3584	0	0
1206.14	280.539	66.2168	66.2168	66.2168	66.2168	66.2168	66.2168	66.2168	0	0
1206.34	280.339	121.707	121.707	121.707	121.707	121.707	121.707	121.707	0	0
1206.54	280.139	33.007	33.007	33.007	33.007	33.007	33.007	33.007	0	0
1206.74	279.939	19.9924	19.9924	19.9924	19.9924	19.9924	19.9924	19.9924	0	0
1206.94	279.739	26.233	26.233	26.233	26.233	26.233	26.233	26.233	0	0
1207.14	279.539	19.9922	19.9922	19.9922	19.9922	19.9922	19.9922	19.9922	0	0
1207.34	279.339	96.808	96.808	96.808	96.808	96.808	96.808	96.808	0	0
1207.54	279.139	51.5238	51.5238	51.5238	51.5238	51.5238	51.5238	51.5238	0	0
1207.74	278.939	60.8748	60.8748	60.8748	60.8748	60.8748	60.8748	60.8748	0	0
1207.94	278.739	49.8432	49.8432	49.8432	49.8432	49.8432	49.8432	49.8432	0	0

File: 241019_C-3.3.csv
C1s Scan
	Characteristic Energy eV	1486.68	Acquisition Time s	0.05
KE_C1s Scan	BE_C1s Scan	CPS_C1s Scan	C-C/C-H_1_C1s Scan	C-O_2_C1s Scan	C=O_3_C1s Scan	O-C=O_4_C1s Scan	Background_C1s Scan	Envelope_C1s Scan	Normalised_Residual_C1s Scan	Residual_C1s Scan
1188.87	297.815	1550.5	1550.5	1550.5	1550.5	1550.5	1550.5	1550.5	0	0
1189.07	297.615	1331.18	1331.18	1331.18	1331.18	1331.18	1331.18	1331.18	0	0
1189.27	297.415	1550.07	1550.07	1550.07	1550.07	1550.07	1550.07	1550.07	0	0
1189.47	297.215	1538.77	1538.77	1538.77	1538.77	1538.77	1538.77	1538.77	0	0
1189.67	297.015	1579.18	1579.18	1579.18	1579.18	1579.18	1579.18	1579.18	0	0
1189.87	296.815	1501.23	1501.23	1501.23	1501.23	1501.23	1501.23	1501.23	0	0
1190.07	296.615	1010.11	1010.11	1010.11	1010.11	1010.11	1010.11	1010.11	0	0
1190.27	296.415	1295.25	1295.25	1295.25	1295.25	1295.25	1295.25	1295.25	0	0
1190.47	296.215	1422.12	1422.12	1422.12	1422.12	1422.12	1422.12	1422.12	0	0
1190.67	296.015	1296.63	1296.63	1296.63	1296.63	1296.63	1296.63	1296.63	0	0
1190.87	295.815	1249.71	1249.71	1249.71	1249.71	1249.71	1249.71	1249.71	0	0
1191.07	295.615	1215.33	1215.33	1215.33	1215.33	1215.33	1215.33	1215.33	0	0
1191.27	295.415	983.892	983.892	983.892	983.892	983.892	983.892	983.892	0	0
1191.47	295.215	921.564	921.564	921.564	921.564	921.564	921.564	921.564	0	0
1191.67	295.015	885.474	885.474	885.474	885.474	885.474	885.474	885.474	0	0
1191.87	294.815	895.082	895.082	895.082	895.082	895.082	895.082	895.082	0	0
1192.07	294.615	1021.75	1021.75	1021.75	1021.75	1021.75	1021.75	1021.75	0	0
1192.27	294.415	866.248	866.248	866.248	866.248	866.248	866.248	866.248	0	0
1192.47	294.215	815.2	815.2	815.2	815.2	815.2	815.2	815.2	0	0
1192.67	294.015	533.096	533.096	533.096	533.096	533.096	533.096	533.096	0	0
1192.87	293.815	675.396	675.396	675.396	675.396	675.396	675.396	675.396	0	0
1193.07	293.615	647.942	647.942	647.942	647.942	647.942	647.942	647.942	0	0
1193.27	293.415	458.338	458.338	458.338	458.338	458.338	458.338	458.338	0	0
1193.47	293.215	745.218	745.218	745.218	745.218	745.218	745.218	745.218	0	0
1193.67	293.015	503.638	503.638	503.638	503.638	503.638	503.638	503.638	0	0
1193.87	292.815	328.172	328.172	328.172	328.172	328.172	328.172	328.172	0	0
1194.07	292.615	395.218	395.218	395.218	395.218	395.219	395.218	395.219	0	0
1194.27	292.415	255.182	255.182	255.182	255.182	255.185	255.182	255.185	0	0
1194.47	292.215	243.966	243.966	243.966	243.966	243.978	243.966	243.978	0	0
1194.67	292.015	243.732	243.732	243.732	243.732	243.773	243.732	243.773	0	0
1194.87	291.815	265.36	265.36	265.36	265.36	265.488	265.36	265.488	0	0
1195.07	291.615	287.568	287.568	287.568	287.568	287.941	287.568	287.941	0	0
1195.27	291.415	303.622	303.622	303.622	303.623	304.636	303.622	304.637	0	0
1195.47	291.215	444.162	444.162	444.162	444.168	446.739	444.162	446.745	0	0
1195.67	291.015	185.553	208.974	208.974	208.994	215.097	208.974	215.116	0.485294	1.47817
1195.87	290.815	181.986	208.993	208.993	209.059	222.581	208.993	222.648	0.673994	2.03311
1196.07	290.615	244.308	209.004	209.004	209.21	237.138	209.004	237.344	-0.0996266	-0.3482
1196.27	290.415	352.746	209.038	209.039	209.643	263.308	209.038	263.913	-1.05762	-4.44165
1196.47	290.215	387.108	209.099	209.099	210.744	306.272	209.099	307.917	-0.900002	-3.95954
1196.67	290.015	403.35	209.15	209.15	213.36	369.996	209.15	374.207	-0.324476	-1.45717
1196.87	289.815	432.448	209.228	209.23	219.244	453.602	209.228	463.621	0.335195	1.55865
1197.07	289.615	751.402	209.421	209.431	231.772	547.394	209.421	569.756	-1.48175	-9.08232
1197.27	289.415	533.992	209.56	209.599	255.951	630.95	209.56	677.379	1.38749	7.16937
1197.47	289.215	942.572	209.834	209.968	299.753	679.328	209.834	769.38	-1.2614	-8.65958
1197.67	289.015	805.738	210.106	210.541	371.661	675.377	210.106	837.366	0.249152	1.58142
1197.87	288.815	927.528	210.398	211.72	479.075	620.49	210.398	890.489	-0.271943	-1.85194
1198.07	288.615	745.186	210.705	214.447	620.773	534.199	210.705	948.009	1.66138	10.1412
1198.27	288.415	1021.74	211.045	220.98	781.136	441.421	211.045	1021.45	-0.00205352	-0.0146776
1198.47	288.215	1196.99	211.431	236.008	926.355	360.948	211.431	1100.45	-0.623964	-4.82714
1198.67	288.015	1264.58	211.885	268.835	1013.16	301.117	211.885	1159.35	-0.66171	-5.2617
1198.87	287.815	1098.93	212.272	335.259	1011.37	261.486	212.268	1183.58	0.571001	4.2326
1199.07	287.615	1294.07	212.761	460.787	921.27	237.985	212.733	1194.6	-0.618257	-4.97316
1199.27	287.415	1244.2	213.363	678.167	775.254	225.226	213.175	1252.49	0.0525096	0.414161
1199.47	287.215	1298.4	214.771	1022.32	616.009	219.044	213.665	1431.15	0.823759	6.63727
1199.67	287.015	1911.48	220.089	1510.51	476.729	216.632	214.395	1780.78	-0.668476	-6.53515
1199.87	286.815	2560.9	240.933	2116.93	372.499	216.141	215.269	2300.69	-1.14976	-13.0103
1200.07	286.615	2855.86	318.489	2746.57	303.394	216.636	216.319	2936.13	0.335852	4.0133
1200.27	286.415	3512.76	573.555	3241.55	262.543	217.812	217.704	3642.35	0.488923	6.47962
1200.47	286.215	4478.38	1312.01	3441.6	240.905	219.456	219.422	4555.7	0.258371	3.86625
1200.67	286.015	6413.62	3155.82	3273.11	231.498	221.889	221.879	6216.68	-0.549882	-9.84705
1200.87	285.815	10227.2	7090.57	2800.85	229.82	225.805	225.802	9669.64	-1.23286	-27.879
1201.07	285.615	15936.6	14090.3	2182.74	233.582	232.012	232.012	16042.6	0.187716	5.29888
1201.27	285.415	25249	23941.8	1581.29	242.722	242.15	242.149	25281.5	0.0457268	1.62472
1201.47	285.215	34872.6	33810.2	1097.27	256.609	256.413	256.413	34651.3	-0.265039	-11.0672
1201.67	285.015	39596.4	38693.4	759.85	273.36	273.297	273.297	39180	-0.467905	-20.8195
1201.87	284.815	35370.2	35447.7	550.416	289.521	289.502	289.502	35708.7	0.402417	16.9231
1202.07	284.615	26620.4	26219.1	432.815	302.656	302.651	302.651	26349.3	-0.371588	-13.5567
1202.27	284.415	14869.2	16038.8	371.098	310.565	310.564	310.564	16099.4	2.25585	61.5091
1202.47	284.215	7576.22	8373.49	340.818	314.522	314.522	314.522	8399.78	2.11571	41.1782
1202.67	284.015	4291.54	3862.92	327.273	316.607	316.607	316.607	3873.59	-1.42661	-20.8976
1202.87	283.815	2440.54	1676.5	321.821	317.773	317.773	317.773	1680.55	-3.43995	-37.9997
1203.07	283.615	1479.32	774.065	319.833	318.399	318.399	318.399	775.499	-4.0918	-35.1909
1203.27	283.415	1489.95	452.762	319.345	318.87	318.87	318.87	453.237	-6.00561	-51.8355
1203.47	283.215	1058.64	353.993	319.411	319.264	319.264	319.264	354.14	-4.84165	-35.2252
1203.67	283.015	917.562	327.426	319.594	319.551	319.551	319.551	327.468	-4.35601	-29.5047
1203.87	282.815	770.482	321.307	319.741	319.729	319.729	319.729	321.318	-3.61833	-22.4582
1204.07	282.615	615.872	320.142	319.869	319.866	319.866	319.866	320.145	-2.66459	-14.7863
1204.27	282.415	384.024	319.947	319.906	319.905	319.905	319.905	319.948	-0.73114	-3.20379
1204.47	282.215	346.968	319.941	319.936	319.935	319.935	319.935	319.941	-0.324439	-1.35133
1204.67	282.015	480.398	319.994	319.993	319.993	319.993	319.993	319.994	-1.63644	-8.02021
1204.87	281.815	269.92	320.019	320.019	320.019	320.019	320.019	320.019	0.68186	2.50494
1205.07	281.615	266.348	320.033	320.033	320.033	320.033	320.033	320.033	0.735546	2.68423
1205.27	281.415	284.894	320.056	320.056	320.056	320.056	320.056	320.056	0.465814	1.75808
1205.47	281.215	314.77	314.77	314.77	314.77	314.77	314.77	314.77	0	0
1205.67	281.015	99.9626	99.9626	99.9626	99.9626	99.9626	99.9626	99.9626	0	0
1205.87	280.815	147.041	147.041	147.041	147.041	147.041	147.041	147.041	0	0
1206.07	280.615	194.554	194.554	194.554	194.554	194.554	194.554	194.554	0	0
1206.27	280.415	195.556	195.556	195.556	195.556	195.556	195.556	195.556	0	0
1206.47	280.215	320.546	320.546	320.546	320.546	320.546	320.546	320.546	0	0
1206.67	280.015	173.882	173.882	173.882	173.882	173.882	173.882	173.882	0	0
1206.87	279.815	72.2976	72.2976	72.2976	72.2976	72.2976	72.2976	72.2976	0	0
1207.07	279.615	176.777	176.777	176.777	176.777	176.777	176.777	176.777	0	0
1207.27	279.415	100.467	100.467	100.467	100.467	100.467	100.467	100.467	0	0
1207.47	279.215	158.535	158.535	158.535	158.535	158.535	158.535	158.535	0	0
1207.67	279.015	191.931	191.931	191.931	191.931	191.931	191.931	191.931	0	0
1207.87	278.815	176.155	176.155	176.155	176.155	176.155	176.155	176.155	0	0

File: 250418_191x195-1.1.csv
C1s Scan
	Characteristic Energy eV	1486.68	Acquisition Time s	0.05
KE_C1s Scan	BE_C1s Scan	CPS_C1s Scan	C-C/C-H_1_C1s Scan	C-O_2_C1s Scan	C=O_3_C1s Scan	O-C=O_4_C1s Scan	Background_C1s Scan	Envelope_C1s Scan	Normalised_Residual_C1s Scan	Residual_C1s Scan
1189.44	297.241	3026.82	3026.82	3026.82	3026.82	3026.82	3026.82	3026.82	0	0
1189.64	297.041	3172.92	3172.92	3172.92	3172.92	3172.92	3172.92	3172.92	0	0
1189.84	296.841	3082.56	3082.56	3082.56	3082.56	3082.56	3082.56	3082.56	0	0
1190.04	296.641	3180.28	3180.28	3180.28	3180.28	3180.28	3180.28	3180.28	0	0
1190.24	296.441	2933.44	2933.44	2933.44	2933.44	2933.44	2933.44	2933.44	0	0
1190.44	296.241	3074.5	3074.5	3074.5	3074.5	3074.5	3074.5	3074.5	0	0
1190.64	296.041	3267.64	3267.64	3267.64	3267.64	3267.64	3267.64	3267.64	0	0
1190.84	295.841	3211.76	3211.76	3211.76	3211.76	3211.76	3211.76	3211.76	0	0
1191.04	295.641	2953.98	2953.98	2953.98	2953.98	2953.98	2953.98	2953.98	0	0
1191.24	295.441	3019.58	3019.58	3019.58	3019.58	3019.58	3019.58	3019.58	0	0
1191.44	295.241	2926.72	2926.72	2926.72	2926.72	2926.72	2926.72	2926.72	0	0
1191.64	295.041	2477.9	2477.9	2477.9	2477.9	2477.9	2477.9	2477.9	0	0
1191.84	294.841	3481.98	3481.98	3481.98	3481.98	3481.98	3481.98	3481.98	0	0
1192.04	294.641	2663.92	2663.92	2663.92	2663.92	2663.92	2663.92	2663.92	0	0
1192.24	294.441	2706.02	2706.02	2706.02	2706.02	2706.02	2706.02	2706.02	0	0
1192.44	294.241	2758.56	2758.56	2758.56	2758.56	2758.56	2758.56	2758.56	0	0
1192.64	294.041	3121.62	3121.62	3121.62	3121.62	3121.62	3121.62	3121.62	0	0
1192.84	293.841	2831.54	2831.54	2831.54	2831.54	2831.54	2831.54	2831.54	0	0
1193.04	293.641	2553.24	2553.24	2553.24	2553.24	2553.24	2553.24	2553.24	0	0
1193.24	293.441	2420.12	2420.12	2420.12	2420.12	2420.12	2420.12	2420.12	0	0
1193.44	293.241	2891.96	2891.96	2891.96	2891.96	2891.96	2891.96	2891.96	0	0
1193.64	293.041	2901.36	2901.36	2901.36	2901.36	2901.36	2901.36	2901.36	0	0
1193.84	292.841	2657.56	2657.56	2657.56	2657.56	2657.56	2657.56	2657.56	0	0
1194.04	292.641	2680.08	2680.08	2680.08	2680.08	2680.09	2680.08	2680.09	0	0
1194.24	292.441	2078.56	2078.56	2078.56	2078.56	2078.58	2078.56	2078.58	0	0
1194.44	292.241	2544.92	2544.92	2544.92	2544.92	2544.98	2544.92	2544.98	0	0
1194.64	292.041	2539.2	2539.2	2539.2	2539.2	2539.36	2539.2	2539.37	0	0
1194.84	291.841	2387.98	2387.98	2387.98	2387.98	2388.43	2387.98	2388.44	0	0
1195.04	291.641	2746.94	2746.94	2746.94	2746.95	2748.12	2746.94	2748.13	0	0
1195.24	291.441	2737.18	2737.18	2737.18	2737.21	2740.08	2737.18	2740.11	0	0
1195.44	291.241	2317.56	2407.91	2407.91	2407.99	2414.7	2407.91	2414.77	0.451546	4.86075
1195.64	291.041	2383.06	2407.88	2407.88	2408.08	2422.97	2407.88	2423.17	0.183709	2.00531
1195.84	290.841	2186.02	2407.57	2407.57	2408.06	2439.49	2407.57	2439.98	1.21458	12.6981
1196.04	290.641	2298.66	2407.49	2407.49	2408.62	2471.52	2407.49	2472.64	0.81144	8.69919
1196.24	290.441	2432.3	2407.35	2407.35	2409.82	2529.07	2407.35	2531.54	0.449939	4.96189
1196.44	290.241	2285.42	2407.14	2407.15	2412.29	2626.24	2407.14	2631.39	1.61824	17.2986
1196.64	290.041	2839.34	2406.88	2406.9	2417.07	2779.8	2406.88	2790.01	-0.207004	-2.46645
1196.84	289.841	3169.34	2406.18	2406.25	2425.32	3005.46	2406.18	3024.65	-0.574687	-7.23438
1197.04	289.641	3602.7	2405.15	2405.34	2439.13	3309.33	2405.15	3343.49	-0.965641	-12.9603
1197.24	289.441	3685.62	2404.26	2404.78	2461.28	3679.04	2404.26	3736.58	0.187712	2.54819
1197.44	289.241	3742.22	2402.46	2403.83	2492.61	4072.26	2402.46	4163.79	1.54096	21.0785
1197.64	289.041	4925.46	2400.15	2403.58	2534	4419.48	2400.15	4556.75	-1.17475	-18.4354
1197.84	288.841	5325.4	2397.21	2405.32	2582.61	4637.42	2397.21	4830.94	-1.5151	-24.7231
1198.04	288.641	4652.68	2394.48	2412.8	2632.65	4666.61	2394.48	4923.1	0.886486	13.521
1198.24	288.441	4942.42	2391.5	2430.71	2673.49	4497.68	2391.49	4818.89	-0.392899	-6.1764
1198.44	288.241	4456.1	2388.86	2468.46	2694.96	4178.07	2388.85	4563.81	0.360788	5.38535
1198.64	288.041	3848.56	2386.86	2540.06	2690.33	3786.83	2386.81	4243.65	1.42408	19.7546
1198.84	287.841	3643.34	2385.55	2664.8	2660.47	3400.9	2385.34	3955.7	1.15716	15.6181
1199.04	287.641	3844.74	2384.68	2866.78	2612.7	3071.33	2383.86	3783.9	-0.219404	-3.04203
1199.24	287.441	4189.18	2384.93	3169.18	2557.64	2818.55	2382.03	3784.2	-1.39911	-20.2489
1199.44	287.241	4153.36	2389.91	3586.46	2505.51	2641.41	2380.4	3982.08	-0.594286	-8.56408
1199.64	287.041	5234.84	2406.85	4107.21	2461.2	2525.28	2377.91	4366.8	-2.68271	-43.402
1199.84	286.841	5116.42	2456.39	4682.53	2427.12	2453.85	2375.02	4894.81	-0.692769	-11.0804
1200.04	286.641	5942.08	2583.1	5218.05	2402.35	2411.66	2371.64	5500.24	-1.28167	-22.0918
1200.24	286.441	6517.98	2875.3	5593.2	2384.71	2386.87	2367.6	6137.28	-1.05442	-19.035
1200.44	286.241	6677.56	3488.32	5707.82	2372.43	2372.21	2363.41	6850.56	0.473392	8.64997
1200.64	286.041	7639.36	4653.2	5526.22	2362.15	2361.45	2357.63	7830.12	0.488017	9.5378
1200.84	285.841	9524.06	6649.09	5098.74	2352.52	2351.95	2350.38	9401.18	-0.281559	-6.14421
1201.04	285.641	12165.4	9684.5	4532.5	2341.16	2340.81	2340.19	11878.4	-0.581903	-14.3516
1201.24	285.441	15382.9	13677.9	3945.31	2326.81	2326.63	2326.4	15297.5	-0.153908	-4.26839
1201.44	285.241	19663.2	18008.4	3422.39	2308.71	2308.62	2308.54	19122.5	-0.862203	-27.0347
1201.64	285.041	22971	21485.8	3004.16	2286.36	2286.33	2286.3	22203.8	-1.13193	-38.3613
1201.84	284.841	22543	22822.5	2698.69	2263.5	2263.49	2263.48	23257.7	1.06441	35.7354
1202.04	284.641	19734	21438.7	2491.76	2242.61	2242.61	2242.61	21687.9	3.11005	97.6921
1202.24	284.441	18347.9	17917.7	2358.72	2223.56	2223.56	2223.56	18052.8	-0.487157	-14.7553
1202.44	284.241	14021.1	13554.5	2278.49	2209.02	2209.02	2209.02	13624	-0.750008	-19.8583
1202.64	284.041	9938.24	9538.93	2233.52	2199.66	2199.66	2199.66	9572.79	-0.819708	-18.2725
1202.84	283.841	6625.06	6488.49	2208.94	2193.29	2193.29	2193.29	6504.14	-0.3322	-6.04616
1203.04	283.641	5495.38	4482.98	2196.43	2189.56	2189.56	2189.56	4489.84	-3.03309	-50.2769
1203.24	283.441	3860.7	3311.22	2190.35	2187.48	2187.48	2187.48	3314.09	-1.96712	-27.3305
1203.44	283.241	3300.78	2693.04	2187.06	2185.92	2185.92	2185.92	2694.17	-2.36093	-30.3303
1203.64	283.041	2916.06	2396.48	2185.71	2185.28	2185.28	2185.28	2396.91	-2.14971	-25.9576
1203.84	282.841	2492.3	2266.06	2184.95	2184.8	2184.8	2184.8	2266.21	-1.01267	-11.3045
1204.04	282.641	2605.06	2213.28	2184.44	2184.39	2184.39	2184.39	2213.33	-1.71617	-19.5864
1204.24	282.441	2349.24	2193.67	2184.19	2184.17	2184.17	2184.17	2193.68	-0.717641	-7.77779
1204.44	282.241	2438.84	2186.48	2183.59	2183.59	2183.59	2183.59	2186.49	-1.14262	-12.6177
1204.64	282.041	2245.24	2184.33	2183.52	2183.52	2183.52	2183.52	2184.33	-0.287431	-3.04544
1204.84	281.841	2127.76	2183.47	2183.26	2183.26	2183.26	2183.26	2183.47	0.270058	2.7855
1205.04	281.641	2322.92	2183.12	2183.07	2183.07	2183.07	2183.07	2183.12	-0.648588	-6.9899
1205.24	281.441	2225.14	2183.02	2183.01	2183.01	2183.01	2183.01	2183.02	-0.199641	-2.10578
1205.44	281.241	2168	2182.96	2182.96	2182.96	2182.96	2182.96	2182.96	0.0718546	0.748116
1205.64	281.041	1915.85	2182.78	2182.78	2182.78	2182.78	2182.78	2182.78	1.36363	13.3464
1205.84	280.841	2000.46	2182.64	2182.64	2182.64	2182.64	2182.64	2182.64	0.910819	9.10924
1206.04	280.641	2112.92	2182.48	2182.48	2182.48	2182.48	2182.48	2182.48	0.338385	3.47807
1206.24	280.441	2324.22	2182.37	2182.37	2182.37	2182.37	2182.37	2182.37	-0.657927	-7.09253
1206.44	280.241	1985.05	1985.05	1985.05	1985.05	1985.05	1985.05	1985.05	0	0
1206.64	280.041	2645.98	2645.98	2645.98	2645.98	2645.98	2645.98	2645.98	0	0
1206.84	279.841	1934.76	1934.76	1934.76	1934.76	1934.76	1934.76	1934.76	0	0
1207.04	279.641	1915.13	1915.13	1915.13	1915.13	1915.13	1915.13	1915.13	0	0
1207.24	279.441	2002.44	2002.44	2002.44	2002.44	2002.44	2002.44	2002.44	0	0
1207.44	279.241	1763.78	1763.78	1763.78	1763.78	1763.78	1763.78	1763.78	0	0
1207.64	279.041	2097.74	2097.74	2097.74	2097.74	2097.74	2097.74	2097.74	0	0
1207.84	278.841	2098.46	2098.46	2098.46	2098.46	2098.46	2098.46	2098.46	0	0
1208.04	278.641	2028.3	2028.3	2028.3	2028.3	2028.3	2028.3	2028.3	0	0
1208.24	278.441	2102.26	2102.26	2102.26	2102.26	2102.26	2102.26	2102.26	0	0
1208.44	278.241	2308.82	2308.82	2308.82	2308.82	2308.82	2308.82	2308.82	0	0