Folder: stickleback_plastic_degradation/XPS/XPS

Note: README.md
# stickleback_plastic_degradation
This repository contains the complete experimental datasets from the study “Cold-water stickleback gut isolates reveal polypropylene surface oxidation and coculture inhibition.”
Bacterial isolates were obtained from the guts of wild threespine stickleback (Gasterosteus aculeatus) collected across multiple bodies of water in Southcentral Alaska. Each isolate was characterized for its potential role in plastic degradation through assays of enzymatic activity, biofilm formation, and plastic surface modification.

The repository is organized into five folders, each corresponding to a major experimental dataset: Lipase, Esterase, Biofilm, FTIR, and XPS.

Stickleback strain identifications have been deposited in GenBank under Accession Numbers PX470357 and PX519477 - PX519659.

File: 241019_191x195-1.2.csv
C1s Scan
	Characteristic Energy eV	1486.68	Acquisition Time s	0.05
KE_C1s Scan	BE_C1s Scan	CPS_C1s Scan	C-C/C-H_1_C1s Scan	C-O_2_C1s Scan	C=O_3_C1s Scan	O-C=O_4_C1s Scan	Background_C1s Scan	Envelope_C1s Scan	Normalised_Residual_C1s Scan	Residual_C1s Scan
1188.75	297.926	170.075	170.075	170.075	170.075	170.075	170.075	170.075	0	0
1188.95	297.726	88.702	88.702	88.702	88.702	88.702	88.702	88.702	0	0
1189.15	297.526	200.822	200.822	200.822	200.822	200.822	200.822	200.822	0	0
1189.35	297.326	133.592	133.592	133.592	133.592	133.592	133.592	133.592	0	0
1189.55	297.126	101.298	101.298	101.298	101.298	101.298	101.298	101.298	0	0
1189.75	296.926	166.876	166.876	166.876	166.876	166.876	166.876	166.876	0	0
1189.95	296.726	100.167	100.167	100.167	100.167	100.167	100.167	100.167	0	0
1190.15	296.526	153.166	153.166	153.166	153.166	153.166	153.166	153.166	0	0
1190.35	296.326	218.238	218.238	218.238	218.238	218.238	218.238	218.238	0	0
1190.55	296.126	132.742	132.742	132.742	132.742	132.742	132.742	132.742	0	0
1190.75	295.926	109.908	109.908	109.908	109.908	109.908	109.908	109.908	0	0
1190.95	295.726	156.046	156.046	156.046	156.046	156.046	156.046	156.046	0	0
1191.15	295.526	104.757	104.757	104.757	104.757	104.757	104.757	104.757	0	0
1191.35	295.326	99.1366	99.1366	99.1366	99.1366	99.1366	99.1366	99.1366	0	0
1191.55	295.126	81.3736	81.3736	81.3736	81.3736	81.3736	81.3736	81.3736	0	0
1191.75	294.926	81.5336	81.5336	81.5336	81.5336	81.5336	81.5336	81.5336	0	0
1191.95	294.726	99.5264	99.5264	99.5264	99.5264	99.5264	99.5264	99.5264	0	0
1192.15	294.526	38.3918	38.3918	38.3918	38.3918	38.3918	38.3918	38.3918	0	0
1192.35	294.326	79.9692	79.9692	79.9692	79.9692	79.9692	79.9692	79.9692	0	0
1192.55	294.126	43.646	43.646	43.646	43.646	43.646	43.646	43.646	0	0
1192.75	293.926	129.93	129.93	129.93	129.93	129.93	129.93	129.93	0	0
1192.95	293.726	39.941	39.941	39.941	39.941	39.941	39.941	39.941	0	0
1193.15	293.526	60.7588	60.7588	60.7588	60.7588	60.7588	60.7588	60.7588	0	0
1193.35	293.326	61.3378	61.3378	61.3378	61.3378	61.3379	61.3378	61.3379	0	0
1193.55	293.126	91.3474	91.3474	91.3474	91.3474	91.3477	91.3474	91.3477	0	0
1193.75	292.926	26.6938	26.6938	26.6938	26.6938	26.6947	26.6938	26.6947	0	0
1193.95	292.726	39.9846	39.9846	39.9846	39.9846	39.9875	39.9846	39.9875	0	0
1194.15	292.526	0	4.61198e-028	4.5815e-012	6.26026e-007	0.00836314	0	0.00836377	0	0
1194.35	292.326	104.684	104.684	104.684	104.684	104.707	104.684	104.707	0	0
1194.55	292.126	48.4832	48.4832	48.4832	48.4832	48.5438	48.4832	48.5438	0	0
1194.75	291.926	5.18134	5.18134	5.18134	5.18138	5.33167	5.18134	5.33171	0	0
1194.95	291.726	0	4.8741e-022	5.79413e-009	0.000145089	0.353013	0	0.353159	0	0
1195.15	291.526	0	1.26913e-020	3.01099e-008	0.000492167	0.784898	0	0.78539	0	0
1195.35	291.326	0	2.93243e-019	1.4786e-007	0.00158389	1.65259	0	1.65418	0	0
1195.55	291.126	14.8114	6.67169	6.67169	6.67651	9.96548	6.67169	9.97031	-0.281276	-0.242056
1195.75	290.926	39.9844	6.70345	6.70345	6.71734	12.9065	6.70345	12.9204	-0.957044	-1.3532
1195.95	290.726	39.9852	6.73995	6.73996	6.77779	17.7606	6.73995	17.7984	-0.784566	-1.10934
1196.15	290.526	17.2297	6.77983	6.77988	6.87744	25.2061	6.77983	25.3038	0.434949	0.403703
1196.35	290.326	99.9618	6.87944	6.87962	7.11775	35.7695	6.87944	36.008	-1.43032	-3.19769
1196.55	290.126	0	6.89771	6.89833	7.44851	49.1662	6.89771	49.7177	0	2.48588
1196.75	289.926	106.898	7.02749	7.02956	8.23259	64.3824	7.02749	65.5895	-0.893386	-2.06542
1196.95	289.726	97.157	7.14754	7.15401	9.64264	78.8263	7.14754	81.3279	-0.359091	-0.791455
1197.15	289.526	78.4498	7.26551	7.28463	12.1511	89.2226	7.26551	94.1273	0.395792	0.783876
1197.35	289.326	162.475	7.47621	7.52972	16.5135	92.7977	7.47621	101.888	-1.06284	-3.02934
1197.55	289.126	120.65	7.65385	7.79552	23.417	88.3979	7.65384	104.303	-0.332781	-0.817347
1197.75	288.926	165.398	7.86108	8.21627	33.7157	77.4712	7.86107	103.681	-1.07306	-3.08586
1197.95	288.726	72.4814	7.9714	8.81454	47.691	62.9261	7.97137	103.489	0.814402	1.55038
1198.15	288.526	225.492	8.2001	10.0951	65.0513	48.1995	8.19993	106.946	-1.76525	-5.92729
1198.35	288.326	59.744	8.3364	12.3681	83.6577	35.3633	8.33543	114.719	1.59039	2.74876
1198.55	288.126	109.98	8.54265	16.6652	100.262	25.5933	8.53767	125.45	0.329853	0.773504
1198.75	287.926	180.137	8.82837	24.2861	110.799	18.906	8.80496	136.404	-0.728597	-2.18662
1198.95	287.726	117.377	9.0896	36.8188	112.149	14.6246	8.98932	145.714	0.58485	1.41684
1199.15	287.526	260.218	9.74373	56.4598	104.221	12.3208	9.35325	154.686	-1.46286	-5.27662
1199.35	287.326	114.037	10.985	84.4201	89.1724	11.0654	9.58811	166.879	1.10647	2.64209
1199.55	287.126	140.569	14.4496	120.937	71.1504	10.5825	9.88669	187.459	0.884351	2.34452
1199.75	286.926	289.642	23.92	163.373	53.9145	10.6452	10.3349	220.848	-0.903863	-3.43968
1199.95	286.726	217.542	47.779	205.21	39.5317	10.8241	10.6931	271.265	0.814472	2.68616
1200.15	286.526	433.798	103.735	237.778	29.1551	11.3545	11.3021	348.115	-0.919885	-4.28413
1200.35	286.326	449.436	221.692	252.216	22.3389	11.9752	11.9554	472.356	0.241753	1.14602
1200.55	286.126	577.58	446.181	244.67	18.6576	12.9735	12.9664	683.583	0.986274	5.30016
1200.75	285.926	924.926	823.378	218.144	17.6732	14.7302	14.7278	1029.74	0.770654	5.24081
1200.95	285.726	1729.54	1369.27	180.773	18.8768	17.4363	17.4355	1534.05	-1.05109	-9.77439
1201.15	285.526	2077.64	2022.27	142.087	22.0017	21.3347	21.3345	2143.69	0.324016	3.30245
1201.35	285.326	2529.06	2608.82	108.272	25.7998	25.5075	25.5074	2691.87	0.72393	8.14069
1201.55	285.126	2808.42	2903.26	83.5323	30.7334	30.6122	30.6121	2956.31	0.623992	7.39427
1201.75	284.926	2971.5	2767.8	67.7695	36.0923	36.0447	36.0447	2799.57	-0.705252	-8.59641
1201.95	284.726	2156.56	2269.9	58.5511	40.6618	40.6441	40.6441	2287.83	0.632073	6.56346
1202.15	284.526	1753.55	1622.88	53.2829	43.7519	43.7456	43.7456	1632.42	-0.646789	-6.05628
1202.35	284.326	846.028	1030.7	50.4527	45.6541	45.652	45.652	1035.5	1.45661	9.47371
1202.55	284.126	555.304	595.353	49.079	46.7936	46.793	46.793	597.64	0.401722	2.11678
1202.75	283.926	323.5	322.586	48.4816	47.4514	47.4512	47.4512	323.617	0.00145388	0.00584725
1202.95	283.726	235.974	172.963	48.1151	47.6754	47.6754	47.6754	173.403	-0.910806	-3.12855
1203.15	283.526	150.542	99.8741	48.0268	47.8492	47.8492	47.8492	100.052	-0.920156	-2.5245
1203.35	283.326	63.8426	67.5913	47.9771	47.9092	47.9092	47.9092	67.6592	0.10681	0.190832
1203.55	283.126	124.791	54.8899	48.1026	48.078	48.078	48.078	54.9146	-1.39869	-3.4938
1203.75	282.926	75.5702	50.269	48.1179	48.1095	48.1095	48.1095	50.2774	-0.650589	-1.26464
1203.95	282.726	90.7982	48.777	48.1562	48.1534	48.1534	48.1534	48.7797	-0.986023	-2.10093
1204.15	282.526	49.105	48.3279	48.164	48.1631	48.1631	48.1631	48.3287	-0.024771	-0.0388143
1204.35	282.326	81.0724	48.2375	48.1978	48.1976	48.1976	48.1976	48.2377	-0.81542	-1.64173
1204.55	282.126	73.7742	48.2934	48.2847	48.2847	48.2847	48.2847	48.2935	-0.663352	-1.27404
1204.75	281.926	32.89	48.3057	48.304	48.304	48.304	48.304	48.3057	0.60106	0.770787
1204.95	281.726	57.603	48.3386	48.3383	48.3383	48.3383	48.3383	48.3386	-0.272947	-0.463218
1205.15	281.526	67.5774	48.4129	48.4129	48.4129	48.4129	48.4129	48.4129	-0.521293	-0.958225
1205.35	281.326	26.9274	48.4613	48.4613	48.4613	48.4613	48.4613	48.4613	0.92792	1.07669
1205.55	281.126	72.9188	48.5074	48.5074	48.5074	48.5074	48.5074	48.5074	-0.639231	-1.22057
1205.75	280.926	34.4102	34.4102	34.4102	34.4102	34.4102	34.4102	34.4102	0	0
1205.95	280.726	0	1.67957e-008	1.61313e-009	3.5288e-016	3.40332e-024	0	1.84088e-008	0	0
1206.15	280.526	0	1.77993e-009	2.81911e-010	4.01177e-017	2.47989e-025	0	2.06184e-009	0	0
1206.35	280.326	79.9258	79.9258	79.9258	79.9258	79.9258	79.9258	79.9258	0	0
1206.55	280.126	48.4826	48.4826	48.4826	48.4826	48.4826	48.4826	48.4826	0	0
1206.75	279.926	62.3956	62.3956	62.3956	62.3956	62.3956	62.3956	62.3956	0	0
1206.95	279.726	0	8.42126e-014	1.4762e-013	3.73108e-021	3.86446e-030	0	2.31833e-013	0	0
1207.15	279.526	39.9852	39.9852	39.9852	39.9852	39.9852	39.9852	39.9852	0	0
1207.35	279.326	11.6549	11.6549	11.6549	11.6549	11.6549	11.6549	11.6549	0	0
1207.55	279.126	0	1.78436e-017	2.77416e-016	1.90338e-024	5.1278e-034	0	2.95259e-016	0	0
1207.75	278.926	55.9228	55.9228	55.9228	55.9228	55.9228	55.9228	55.9228	0	0

File: 241019_191x195-1.3.csv
C1s Scan
	Characteristic Energy eV	1486.68	Acquisition Time s	0.05
KE_C1s Scan	BE_C1s Scan	CPS_C1s Scan	C-C/C-H_1_C1s Scan	C-O_2_C1s Scan	C=O_3_C1s Scan	O-C=O_4_C1s Scan	Background_C1s Scan	Envelope_C1s Scan	Normalised_Residual_C1s Scan	Residual_C1s Scan
1188.82	297.86	1417.02	1417.02	1417.02	1417.02	1417.02	1417.02	1417.02	0	0
1189.02	297.66	1123.69	1123.69	1123.69	1123.69	1123.69	1123.69	1123.69	0	0
1189.22	297.46	979.432	979.432	979.432	979.432	979.432	979.432	979.432	0	0
1189.42	297.26	1099.58	1099.58	1099.58	1099.58	1099.58	1099.58	1099.58	0	0
1189.62	297.06	916.032	916.032	916.032	916.032	916.032	916.032	916.032	0	0
1189.82	296.86	877.888	877.888	877.888	877.888	877.888	877.888	877.888	0	0
1190.02	296.66	872.63	872.63	872.63	872.63	872.63	872.63	872.63	0	0
1190.22	296.46	1032.12	1032.12	1032.12	1032.12	1032.12	1032.12	1032.12	0	0
1190.42	296.26	848.23	848.23	848.23	848.23	848.23	848.23	848.23	0	0
1190.62	296.06	879.67	879.67	879.67	879.67	879.67	879.67	879.67	0	0
1190.82	295.86	720.016	720.016	720.016	720.016	720.016	720.016	720.016	0	0
1191.02	295.66	763.706	763.706	763.706	763.706	763.706	763.706	763.706	0	0
1191.22	295.46	658.1	658.1	658.1	658.1	658.1	658.1	658.1	0	0
1191.42	295.26	548.872	548.872	548.872	548.872	548.872	548.872	548.872	0	0
1191.62	295.06	634.85	634.85	634.85	634.85	634.85	634.85	634.85	0	0
1191.82	294.86	680.67	680.67	680.67	680.67	680.67	680.67	680.67	0	0
1192.02	294.66	622.856	622.856	622.856	622.856	622.856	622.856	622.856	0	0
1192.22	294.46	568.084	568.084	568.084	568.084	568.084	568.084	568.084	0	0
1192.42	294.26	715.004	715.004	715.004	715.004	715.004	715.004	715.004	0	0
1192.62	294.06	686.912	686.912	686.912	686.912	686.912	686.912	686.912	0	0
1192.82	293.86	340.452	340.452	340.452	340.452	340.452	340.452	340.452	0	0
1193.02	293.66	463.058	463.058	463.058	463.058	463.058	463.058	463.058	0	0
1193.22	293.46	440.934	440.934	440.934	440.934	440.934	440.934	440.934	0	0
1193.42	293.26	406.296	406.296	406.296	406.296	406.296	406.296	406.296	0	0
1193.62	293.06	394.714	394.714	394.714	394.714	394.714	394.714	394.714	0	0
1193.82	292.86	253.404	253.404	253.404	253.404	253.404	253.404	253.404	0	0
1194.02	292.66	279.808	279.808	279.808	279.808	279.809	279.808	279.809	0	0
1194.22	292.46	164.156	164.156	164.156	164.156	164.159	164.156	164.159	0	0
1194.42	292.26	184.725	184.725	184.725	184.725	184.734	184.725	184.734	0	0
1194.62	292.06	288.386	288.386	288.386	288.386	288.416	288.386	288.416	0	0
1194.82	291.86	195.555	195.555	195.555	195.555	195.646	195.555	195.646	0	0
1195.02	291.66	164.388	164.388	164.388	164.389	164.651	164.388	164.652	0	0
1195.22	291.46	171.639	171.639	171.639	171.642	172.346	171.639	172.348	0	0
1195.42	291.26	176.47	176.47	176.47	176.479	178.244	176.47	178.254	0	0
1195.62	291.06	249.878	196.437	196.437	196.47	200.6	196.437	200.634	-0.69659	-2.46222
1195.82	290.86	260.18	196.477	196.477	196.586	205.604	196.477	205.713	-0.755056	-2.72333
1196.02	290.66	165.632	196.485	196.485	196.817	215.144	196.485	215.476	0.866002	2.49216
1196.22	290.46	220.584	196.514	196.514	197.462	232.037	196.514	232.985	0.186703	0.620044
1196.42	290.26	363.758	196.597	196.597	199.112	259.327	196.597	261.842	-1.19488	-5.09582
1196.62	290.06	227.518	196.625	196.626	202.903	298.922	196.625	305.201	1.1516	3.88413
1196.82	289.86	415.858	196.698	196.702	211.257	349.601	196.698	364.164	-0.566827	-2.58469
1197.02	289.66	384.65	196.781	196.797	228.459	404.464	196.781	436.157	0.587247	2.57536
1197.22	289.46	523.97	196.869	196.926	260.912	450.751	196.869	514.85	-0.0890848	-0.455976
1197.42	289.26	497.396	196.986	197.176	317.819	473.965	196.986	594.99	0.978487	4.87968
1197.62	289.06	716.388	197.17	197.772	408.146	465.861	197.17	677.439	-0.32539	-1.94744
1197.82	288.86	655.008	197.387	199.15	537.632	429.368	197.387	771.377	1.01672	5.81847
1198.02	288.66	1109.89	197.667	202.528	699.772	377.179	197.667	884.144	-1.51519	-11.2874
1198.22	288.46	985.62	197.945	210.398	870.425	323.575	197.945	1008.51	0.163014	1.14437
1198.42	288.26	1105.19	198.25	228.198	1007.99	278.503	198.25	1118.19	0.087492	0.650386
1198.62	288.06	1396.83	198.647	265.686	1067.7	245.851	198.644	1181.95	-1.28561	-10.744
1198.82	287.86	1190.87	199.017	339.464	1028.54	224.682	198.997	1194.71	0.0249064	0.192188
1199.02	287.66	1292.64	199.49	472.978	904.357	212.388	199.379	1191.08	-0.631675	-5.07829
1199.22	287.46	1378.38	200.323	695.655	737.43	205.893	199.763	1240.01	-0.833343	-6.91819
1199.42	287.26	1399.71	202.711	1030.59	571.559	202.872	200.169	1407.22	0.0448929	0.375562
1199.62	287.06	1870.52	211.093	1479.63	435.131	201.847	200.737	1725.49	-0.749852	-7.25173
1199.82	286.86	2008.4	239.345	1996.16	337.835	201.869	201.441	2170.89	0.810744	8.12444
1200.02	286.66	2854.66	326.838	2475.93	275.774	202.49	202.337	2674.02	-0.75599	-9.03188
1200.22	286.46	3025.16	570.268	2781.15	240.184	203.401	203.349	3184.96	0.64965	7.98985
1200.42	286.26	3948.82	1173.79	2803.73	221.809	204.635	204.619	3790.11	-0.564757	-7.9356
1200.62	286.06	4804.44	2494.47	2537.49	213.75	206.246	206.241	4833.23	0.0928772	1.43951
1200.82	285.86	6831.02	5012.09	2077.01	211.647	208.592	208.591	6883.57	0.142164	2.62734
1201.02	285.66	10596.2	9094.93	1562.19	213.222	212.057	212.056	10446.2	-0.325738	-7.49771
1201.22	285.46	15166	14483.4	1105.28	217.498	217.084	217.084	15372	0.374142	10.3028
1201.42	285.26	19956.6	19760.9	760.535	224.415	224.277	224.277	20297.3	0.539176	17.0318
1201.62	285.06	23234.8	22637.2	531.954	232.602	232.559	232.559	22936.7	-0.437365	-14.9073
1201.82	284.86	21303	21546.2	395.959	240.865	240.853	240.853	21701.3	0.610161	19.9136
1202.02	284.66	16010.6	17110.2	322.582	247.684	247.681	247.681	17185.1	2.07556	58.7254
1202.22	284.46	11316	11530.7	286.12	252.399	252.399	252.399	11564.4	0.52213	12.4197
1202.42	284.26	6667.74	6752.18	269.349	255.155	255.155	255.155	6766.37	0.270093	4.93159
1202.62	284.06	3840.8	3533.68	262.26	256.682	256.682	256.682	3539.26	-1.08798	-15.0771
1202.82	283.86	2218	1721.49	259.605	257.555	257.555	257.555	1723.54	-2.34765	-24.7228
1203.02	283.66	1313.07	841.575	258.784	258.08	258.08	258.08	842.279	-2.90514	-23.5395
1203.22	283.46	937.762	466.799	258.61	258.384	258.384	258.384	467.025	-3.4373	-23.5369
1203.42	283.26	867.672	325.389	258.661	258.593	258.593	258.593	325.457	-4.11603	-27.1108
1203.62	283.06	496.5	277.926	258.725	258.706	258.706	258.706	277.945	-2.19324	-10.9277
1203.82	282.86	417.038	263.733	258.773	258.768	258.768	258.768	263.738	-1.67857	-7.66499
1204.02	282.66	423.372	259.979	258.829	258.828	258.828	258.828	259.98	-1.77564	-8.16961
1204.22	282.46	223.074	259.08	258.841	258.841	258.841	258.841	259.081	0.539069	1.80034
1204.42	282.26	319.718	258.919	258.874	258.874	258.874	258.874	258.919	-0.760324	-3.03995
1204.62	282.06	185.142	258.904	258.896	258.896	258.896	258.896	258.904	1.21218	3.6881
1204.82	281.86	258.498	258.899	258.897	258.897	258.897	258.897	258.899	0.00557154	0.0200304
1205.02	281.66	231.412	258.906	258.906	258.906	258.906	258.906	258.906	0.404141	1.37471
1205.22	281.46	214.78	258.916	258.916	258.916	258.916	258.916	258.916	0.673406	2.20678
1205.42	281.26	213.554	258.927	258.927	258.927	258.927	258.927	258.927	0.694276	2.26867
1205.62	281.06	331.376	331.376	331.376	331.376	331.376	331.376	331.376	0	0
1205.82	280.86	206.004	206.004	206.004	206.004	206.004	206.004	206.004	0	0
1206.02	280.66	186.678	186.678	186.678	186.678	186.678	186.678	186.678	0	0
1206.22	280.46	147.473	147.473	147.473	147.473	147.473	147.473	147.473	0	0
1206.42	280.26	129.813	129.813	129.813	129.813	129.813	129.813	129.813	0	0
1206.62	280.06	113.875	113.875	113.875	113.875	113.875	113.875	113.875	0	0
1206.82	279.86	107.796	107.796	107.796	107.796	107.796	107.796	107.796	0	0
1207.02	279.66	128.798	128.798	128.798	128.798	128.798	128.798	128.798	0	0
1207.22	279.46	59.9778	59.9778	59.9778	59.9778	59.9778	59.9778	59.9778	0	0
1207.42	279.26	145.13	145.13	145.13	145.13	145.13	145.13	145.13	0	0
1207.62	279.06	154.715	154.715	154.715	154.715	154.715	154.715	154.715	0	0
1207.82	278.86	70.617	70.617	70.617	70.617	70.617	70.617	70.617	0	0

File: 241019_191x195-3.3.csv
C1s Scan
	Characteristic Energy eV	1486.68	Acquisition Time s	0.05
KE_C1s Scan	BE_C1s Scan	CPS_C1s Scan	C-C/C-H_1_C1s Scan	C-O_2_C1s Scan	C=O_3_C1s Scan	O-C=O_4_C1s Scan	Background_C1s Scan	Envelope_C1s Scan	Normalised_Residual_C1s Scan	Residual_C1s Scan
1188.86	297.824	906.686	906.686	906.686	906.686	906.686	906.686	906.686	0	0
1189.06	297.624	1260.47	1260.47	1260.47	1260.47	1260.47	1260.47	1260.47	0	0
1189.26	297.424	1032.98	1032.98	1032.98	1032.98	1032.98	1032.98	1032.98	0	0
1189.46	297.224	1148.8	1148.8	1148.8	1148.8	1148.8	1148.8	1148.8	0	0
1189.66	297.024	947.058	947.058	947.058	947.058	947.058	947.058	947.058	0	0
1189.86	296.824	897.122	897.122	897.122	897.122	897.122	897.122	897.122	0	0
1190.06	296.624	791.564	791.564	791.564	791.564	791.564	791.564	791.564	0	0
1190.26	296.424	770.472	770.472	770.472	770.472	770.472	770.472	770.472	0	0
1190.46	296.224	1008.65	1008.65	1008.65	1008.65	1008.65	1008.65	1008.65	0	0
1190.66	296.024	918.612	918.612	918.612	918.612	918.612	918.612	918.612	0	0
1190.86	295.824	871.606	871.606	871.606	871.606	871.606	871.606	871.606	0	0
1191.06	295.624	894.664	894.664	894.664	894.664	894.664	894.664	894.664	0	0
1191.26	295.424	673.35	673.35	673.35	673.35	673.35	673.35	673.35	0	0
1191.46	295.224	684.82	684.82	684.82	684.82	684.82	684.82	684.82	0	0
1191.66	295.024	628.844	628.844	628.844	628.844	628.844	628.844	628.844	0	0
1191.86	294.824	562.256	562.256	562.256	562.256	562.256	562.256	562.256	0	0
1192.06	294.624	456.51	456.51	456.51	456.51	456.51	456.51	456.51	0	0
1192.26	294.424	534.186	534.186	534.186	534.186	534.186	534.186	534.186	0	0
1192.46	294.224	470.742	470.742	470.742	470.742	470.742	470.742	470.742	0	0
1192.66	294.024	472.032	472.032	472.032	472.032	472.032	472.032	472.032	0	0
1192.86	293.824	540.098	540.098	540.098	540.098	540.098	540.098	540.098	0	0
1193.06	293.624	465.426	465.426	465.426	465.426	465.426	465.426	465.426	0	0
1193.26	293.424	335.474	335.474	335.474	335.474	335.474	335.474	335.474	0	0
1193.46	293.224	299.026	299.026	299.026	299.026	299.026	299.026	299.026	0	0
1193.66	293.024	410.95	410.95	410.95	410.95	410.951	410.95	410.951	0	0
1193.86	292.824	294.546	294.546	294.546	294.546	294.55	294.546	294.55	0	0
1194.06	292.624	415.094	415.094	415.094	415.094	415.105	415.094	415.105	0	0
1194.26	292.424	444.282	444.282	444.282	444.282	444.313	444.282	444.313	0	0
1194.46	292.224	230.514	230.514	230.514	230.514	230.599	230.514	230.599	0	0
1194.66	292.024	181.839	181.839	181.839	181.84	182.059	181.839	182.06	0	0
1194.86	291.824	127.949	127.949	127.949	127.95	128.491	127.949	128.491	0	0
1195.06	291.624	233.436	233.436	233.436	233.438	234.701	233.436	234.703	0	0
1195.26	291.424	303.25	303.25	303.25	303.256	306.053	303.25	306.059	0	0
1195.46	291.224	263.564	263.564	263.564	263.582	269.456	263.564	269.474	0	0
1195.66	291.024	212.662	225.49	225.49	225.541	237.261	225.49	237.312	0.377967	1.23249
1195.86	290.824	332.388	225.485	225.485	225.623	247.803	225.485	247.94	-1.03574	-4.22238
1196.06	290.624	342.752	225.48	225.48	225.833	265.531	225.48	265.884	-0.92841	-3.84339
1196.26	290.424	192.392	225.477	225.478	226.337	293.399	225.477	294.26	1.64221	5.0934
1196.46	290.224	300.194	225.468	225.473	227.454	334.048	225.468	336.039	0.462601	1.79223
1196.66	290.024	415.238	225.456	225.472	229.807	388.514	225.456	392.88	-0.245338	-1.11789
1196.86	289.824	398.836	225.437	225.485	234.483	454.265	225.437	463.358	0.722431	3.22611
1197.06	289.624	594.552	225.417	225.557	243.276	523.542	225.417	541.54	-0.486145	-2.65061
1197.26	289.424	567.046	225.387	225.776	258.863	583.737	225.387	617.601	0.474725	2.52776
1197.46	289.224	591.338	225.35	226.371	284.722	620.572	225.35	680.964	0.824144	4.48132
1197.66	289.024	796.918	225.31	227.856	324.765	623.81	225.31	725.81	-0.56324	-3.55538
1197.86	288.824	986.704	225.264	231.285	382.188	592.27	225.264	755.215	-1.64786	-11.5744
1198.06	288.624	661.824	225.211	238.754	457.549	535.098	225.211	780.979	1.03569	5.95777
1198.26	288.424	663.764	225.178	254.15	546.265	466.349	225.178	816.409	1.32483	7.63226
1198.46	288.224	932.654	225.13	283.898	636.506	399.203	225.129	869.351	-0.463497	-3.16514
1198.66	288.024	1051.28	225.077	338.075	710.693	342.297	225.072	940.926	-0.761023	-5.51749
1198.86	287.824	967.626	225.042	430.824	750.478	299.135	225.009	1030.45	0.451602	3.1412
1199.06	287.624	965.12	225.125	579.682	744.619	269.116	224.949	1143.69	1.28532	8.92871
1199.26	287.424	1533.71	225.705	802.307	694.431	249.712	224.85	1297.61	-1.34807	-11.805
1199.46	287.224	1594.68	228.475	1108.15	614.152	237.987	224.742	1514.54	-0.448725	-4.00684
1199.66	287.024	1575.45	239.265	1489.03	522.671	231.311	224.626	1808.4	1.31234	11.6475
1199.86	286.824	2023.94	276.027	1908.13	436.331	227.678	224.47	2174.76	0.749625	7.54098
1200.06	286.624	2469.14	387.664	2296.99	364.966	225.748	224.286	2602.51	0.600181	6.66868
1200.26	286.424	2937.78	688.932	2567.4	311.866	224.709	224.077	3120.68	0.754542	9.14489
1200.46	286.224	3972.46	1409.08	2647.41	275.476	224.065	223.806	3884.61	-0.311674	-4.39253
1200.66	286.024	5525.5	2922.89	2513.93	252.172	223.527	223.426	5242.24	-0.852087	-14.163
1200.86	285.824	7608.24	5680.22	2204.99	237.992	222.889	222.851	7677.53	0.177635	3.46462
1201.06	285.624	11539.6	9913.07	1799.91	229.58	222.037	222.024	11498.5	-0.0854144	-2.05169
1201.26	285.424	16594.3	15104.8	1383.62	224.388	220.809	220.804	16271.2	-0.560816	-16.1542
1201.46	285.224	20176.4	19623	1017.85	220.843	219.229	219.227	20423.3	0.388644	12.3441
1201.66	285.024	21433	21340.1	731.446	218.216	217.525	217.524	21854.7	0.644117	21.0859
1201.86	284.824	20386.6	19294.7	527.017	216.129	215.848	215.848	19606.2	-1.22222	-39.0219
1202.06	284.624	14461.3	14619.3	392.339	214.645	214.538	214.537	14797.2	0.624704	16.7982
1202.26	284.424	9440.48	9459.39	309.936	213.717	213.677	213.677	9555.69	0.265132	5.76028
1202.46	284.224	5067	5352.91	262.646	213.232	213.218	213.218	5402.35	1.05344	16.7676
1202.66	284.024	2738.08	2726.84	237.035	212.971	212.967	212.967	2750.92	0.054852	0.641802
1202.86	283.824	1585.31	1305.53	223.95	212.836	212.834	212.834	1316.65	-1.50878	-13.4328
1203.06	283.624	1058.1	637.347	217.624	212.755	212.755	212.755	642.217	-2.85889	-20.7944
1203.26	283.424	790.494	360.646	214.728	212.7	212.7	212.7	362.674	-3.40249	-21.391
1203.46	283.224	637.92	258.955	213.471	212.667	212.667	212.667	259.759	-3.34794	-18.908
1203.66	283.024	575.662	225.652	212.946	212.643	212.643	212.643	225.954	-3.25917	-17.4854
1203.86	282.824	309.82	215.911	212.735	212.628	212.628	212.628	216.018	-1.19163	-4.69009
1204.06	282.624	328.726	213.362	212.655	212.618	212.618	212.618	213.398	-1.42233	-5.76638
1204.26	282.424	248.988	212.757	212.618	212.606	212.606	212.606	212.769	-0.513256	-1.81096
1204.46	282.224	278.56	212.628	212.604	212.601	212.601	212.601	212.632	-0.88328	-3.29642
1204.66	282.024	173.392	212.602	212.599	212.598	212.598	212.598	212.603	0.665861	1.96057
1204.86	281.824	192.253	212.596	212.596	212.596	212.596	212.596	212.597	0.328074	1.01717
1205.06	281.624	184.77	184.77	184.77	184.77	184.77	184.77	184.77	0	0
1205.26	281.424	252.07	252.07	252.07	252.07	252.07	252.07	252.07	0	0
1205.46	281.224	153.078	153.078	153.078	153.078	153.078	153.078	153.078	0	0
1205.66	281.024	171.018	171.018	171.018	171.018	171.018	171.018	171.018	0	0
1205.86	280.824	221.482	221.482	221.482	221.482	221.482	221.482	221.482	0	0
1206.06	280.624	258.31	258.31	258.31	258.31	258.31	258.31	258.31	0	0
1206.26	280.424	212.318	212.318	212.318	212.318	212.318	212.318	212.318	0	0
1206.46	280.224	126.7	126.7	126.7	126.7	126.7	126.7	126.7	0	0
1206.66	280.024	136.79	136.79	136.79	136.79	136.79	136.79	136.79	0	0
1206.86	279.824	177.356	177.356	177.356	177.356	177.356	177.356	177.356	0	0
1207.06	279.624	133.825	133.825	133.825	133.825	133.825	133.825	133.825	0	0
1207.26	279.424	19.9928	19.9928	19.9928	19.9928	19.9928	19.9928	19.9928	0	0
1207.46	279.224	101.526	101.526	101.526	101.526	101.526	101.526	101.526	0	0
1207.66	279.024	171.667	171.667	171.667	171.667	171.667	171.667	171.667	0	0
1207.86	278.824	94.0434	94.0434	94.0434	94.0434	94.0434	94.0434	94.0434	0	0