Folder: stickleback_plastic_degradation/XPS/XPS (part 8)

File: 250418_195-3.1.csv
C1s Scan
	Characteristic Energy eV	1486.68	Acquisition Time s	0.05
KE_C1s Scan	BE_C1s Scan	CPS_C1s Scan	C-C/C-H_1_C1s Scan	C-O_2_C1s Scan	C=O_3_C1s Scan	O-C=O_4_C1s Scan	Background_C1s Scan	Envelope_C1s Scan	Normalised_Residual_C1s Scan	Residual_C1s Scan
1189.43	297.25	1676.32	1676.32	1676.32	1676.32	1676.32	1676.32	1676.32	0	0
1189.63	297.05	1376.92	1376.92	1376.92	1376.92	1376.92	1376.92	1376.92	0	0
1189.83	296.85	1659.4	1659.4	1659.4	1659.4	1659.4	1659.4	1659.4	0	0
1190.03	296.65	1352.5	1352.5	1352.5	1352.5	1352.5	1352.5	1352.5	0	0
1190.23	296.45	1295.27	1295.27	1295.27	1295.27	1295.27	1295.27	1295.27	0	0
1190.43	296.25	1345.93	1345.93	1345.93	1345.93	1345.93	1345.93	1345.93	0	0
1190.63	296.05	1797.34	1797.34	1797.34	1797.34	1797.34	1797.34	1797.34	0	0
1190.83	295.85	1569.09	1569.09	1569.09	1569.09	1569.09	1569.09	1569.09	0	0
1191.03	295.65	1234.88	1234.88	1234.88	1234.88	1234.88	1234.88	1234.88	0	0
1191.23	295.45	1448.27	1448.27	1448.27	1448.27	1448.27	1448.27	1448.27	0	0
1191.43	295.25	1565.94	1565.94	1565.94	1565.94	1565.94	1565.94	1565.94	0	0
1191.63	295.05	1726.58	1726.58	1726.58	1726.58	1726.58	1726.58	1726.58	0	0
1191.83	294.85	1660.86	1660.86	1660.86	1660.86	1660.86	1660.86	1660.86	0	0
1192.03	294.65	1221.79	1221.79	1221.79	1221.79	1221.79	1221.79	1221.79	0	0
1192.23	294.45	1297.6	1297.6	1297.6	1297.6	1297.6	1297.6	1297.6	0	0
1192.43	294.25	1356.78	1356.78	1356.78	1356.78	1356.78	1356.78	1356.78	0	0
1192.63	294.05	1294.88	1294.88	1294.88	1294.88	1294.88	1294.88	1294.88	0	0
1192.83	293.85	1422.16	1422.16	1422.16	1422.16	1422.16	1422.16	1422.16	0	0
1193.03	293.65	1271.1	1271.1	1271.1	1271.1	1271.1	1271.1	1271.1	0	0
1193.23	293.45	1312.76	1312.76	1312.76	1312.76	1312.76	1312.76	1312.76	0	0
1193.43	293.25	1128.7	1128.7	1128.7	1128.7	1128.7	1128.7	1128.7	0	0
1193.63	293.05	1274.18	1274.18	1274.18	1274.18	1274.18	1274.18	1274.18	0	0
1193.83	292.85	1194.21	1194.21	1194.21	1194.21	1194.21	1194.21	1194.21	0	0
1194.03	292.65	1230.39	1230.39	1230.39	1230.39	1230.39	1230.39	1230.39	0	0
1194.23	292.45	1354.45	1354.45	1354.45	1354.45	1354.45	1354.45	1354.45	0	0
1194.43	292.25	1418.35	1418.35	1418.35	1418.35	1418.35	1418.35	1418.35	0	0
1194.63	292.05	1394.62	1394.62	1394.62	1394.62	1394.63	1394.62	1394.63	0	0
1194.83	291.85	1450.83	1450.83	1450.83	1450.83	1450.85	1450.83	1450.85	0	0
1195.03	291.65	1168.82	1289.92	1289.92	1289.92	1289.97	1289.92	1289.97	0.792327	6.05709
1195.23	291.45	1227.62	1289.8	1289.8	1289.8	1289.98	1289.8	1289.98	0.397946	3.11775
1195.43	291.25	1352.97	1289.72	1289.72	1289.72	1290.28	1289.72	1290.28	-0.381086	-3.13439
1195.63	291.05	1037.44	1289.57	1289.57	1289.57	1291.23	1289.57	1291.23	1.7619	12.6896
1195.83	290.85	1594.85	1289.32	1289.32	1289.32	1293.89	1289.32	1293.89	-1.68513	-15.048
1196.03	290.65	1323.14	1289.24	1289.24	1289.25	1300.89	1289.24	1300.9	-0.136719	-1.11203
1196.23	290.45	1520.01	1289.13	1289.13	1289.15	1316.69	1289.13	1316.72	-1.16599	-10.1649
1196.43	290.25	1464.89	1288.99	1288.99	1289.07	1349.29	1288.99	1349.37	-0.674885	-5.77587
1196.63	290.05	1407.43	1288.83	1288.83	1289.1	1410.59	1288.83	1410.85	0.0203881	0.171031
1196.83	289.85	1571.94	1288.57	1288.57	1289.29	1514.75	1288.57	1515.48	-0.318437	-2.8231
1197.03	289.65	1571.65	1288.42	1288.42	1290.29	1672.94	1288.42	1674.82	0.581867	5.15807
1197.23	289.45	2169.88	1287.87	1287.89	1292.33	1881.56	1287.87	1886.04	-1.36252	-14.1921
1197.43	289.25	2081.96	1287.18	1287.25	1297.02	2110.58	1287.18	2120.49	0.188811	1.92641
1197.63	289.05	2247.82	1286.22	1286.46	1306.29	2300.39	1286.22	2320.71	0.343772	3.64448
1197.83	288.85	2529.54	1285.1	1285.88	1322.79	2384.12	1285.1	2422.59	-0.475491	-5.34746
1198.03	288.65	2356.12	1284.08	1286.4	1348.87	2327.48	1284.08	2394.58	0.177185	1.92314
1198.23	288.45	2211.9	1283.04	1289.43	1384.26	2153.18	1283.04	2260.79	0.23246	2.44464
1198.43	288.25	2207.02	1282.21	1298.58	1424.49	1925.04	1282.2	2083.73	-0.58683	-6.16453
1198.63	288.05	1626.63	1281.79	1320.6	1459.65	1707.5	1281.75	1924.28	1.65025	14.8826
1198.83	287.85	1714.34	1281.34	1366.4	1476.99	1536.64	1281.18	1817.82	0.558851	5.17404
1199.03	287.65	1757.51	1281.25	1453.23	1469.48	1420.67	1280.64	1782.71	0.134421	1.26009
1199.23	287.45	1855.78	1282.11	1601.75	1439.9	1350.54	1280.01	1834.27	-0.111682	-1.0758
1199.43	287.25	1559.5	1286.22	1829.13	1399.33	1312.29	1279.53	1988.4	2.42855	21.445
1199.63	287.05	2115.54	1298.37	2130.84	1358.93	1292.72	1278.61	2245.03	0.629523	6.47452
1199.83	286.85	2296.18	1331.67	2465.28	1326.46	1283.34	1277.71	2573.6	1.29458	13.8712
1200.03	286.65	3353.7	1412.26	2746.57	1302.93	1278	1275.92	2912	-1.7055	-22.0851
1200.23	286.45	2986.78	1592.24	2877.1	1287.83	1274.8	1274.09	3209.71	0.912128	11.1466
1200.43	286.25	3793.52	1956.68	2802.46	1278.43	1272.2	1271.98	3493.83	-1.08801	-14.9844
1200.63	286.05	3710.88	2625.27	2552.64	1272.59	1269.86	1269.79	3910.99	0.734534	10.0054
1200.83	285.85	4585.5	3724.57	2219.46	1267.94	1266.84	1266.82	4678.35	0.306613	4.64268
1201.03	285.65	5419.32	5317.26	1896.71	1263.38	1262.96	1262.96	5951.43	1.61628	26.6057
1201.23	285.45	8329.64	7284.22	1638.43	1256.86	1256.71	1256.71	7666.09	-1.62573	-33.1777
1201.43	285.25	9959.78	9232.31	1458.82	1248.95	1248.9	1248.9	9442.28	-1.15951	-25.8752
1201.63	285.05	10347.6	10552.6	1346.4	1240.26	1240.25	1240.25	10658.8	0.683915	15.5564
1201.83	284.85	10264.1	10722.1	1281.03	1231.45	1231.45	1231.45	10771.7	1.12013	25.3756
1202.03	284.65	9505.88	9664.47	1244.98	1223.57	1223.57	1223.57	9685.89	0.412832	9.00026
1202.23	284.45	7903.64	7808.66	1225.36	1216.8	1216.8	1216.8	7817.22	-0.21736	-4.32094
1202.43	284.25	5825.28	5782.4	1214.92	1211.76	1211.76	1211.76	5785.57	-0.116335	-1.98542
1202.63	284.05	4267.74	4056.36	1209.44	1208.36	1208.36	1208.36	4057.45	-0.719803	-10.5147
1202.83	283.85	2966.84	2817.21	1206.52	1206.17	1206.17	1206.17	2817.56	-0.612844	-7.46418
1203.03	283.65	2429.92	2038.37	1204.95	1204.85	1204.85	1204.85	2038.47	-1.77569	-19.5726
1203.23	283.45	2082.78	1600.28	1203.93	1203.9	1203.9	1203.9	1600.31	-2.36392	-24.1235
1203.43	283.25	1840.94	1377.1	1203.33	1203.32	1203.32	1203.32	1377.11	-2.41726	-23.1914
1203.63	283.05	1358.72	1273.48	1203.13	1203.12	1203.12	1203.12	1273.48	-0.517082	-4.26196
1203.83	282.85	1341.33	1229.26	1202.94	1202.93	1202.93	1202.93	1229.26	-0.684232	-5.60345
1204.03	282.65	1422.27	1211.84	1202.74	1202.74	1202.74	1202.74	1211.84	-1.24767	-10.5215
1204.23	282.45	1169.14	1205.52	1202.61	1202.61	1202.61	1202.61	1205.52	0.237914	1.81902
1204.43	282.25	981.894	1203.35	1202.49	1202.49	1202.49	1202.49	1203.35	1.58028	11.0727
1204.63	282.05	1042.35	1202.58	1202.35	1202.35	1202.35	1202.35	1202.58	1.10975	8.0116
1204.83	281.85	1182.38	1202.34	1202.28	1202.28	1202.28	1202.28	1202.34	0.129777	0.997842
1205.03	281.65	1262.47	1202.23	1202.22	1202.22	1202.22	1202.22	1202.23	-0.379099	-3.01195
1205.23	281.45	1327.47	1202.15	1202.15	1202.15	1202.15	1202.15	1202.15	-0.769092	-6.26578
1205.43	281.25	941.3	1201.91	1201.91	1201.91	1201.91	1201.91	1201.91	1.89939	13.0306
1205.63	281.05	1103.69	1201.78	1201.78	1201.78	1201.78	1201.78	1201.78	0.660243	4.9047
1205.83	280.85	1084.41	1201.64	1201.64	1201.64	1201.64	1201.64	1201.64	0.796025	5.86151
1206.03	280.65	881.592	1201.37	1201.37	1201.37	1201.37	1201.37	1201.37	2.40823	15.9888
1206.23	280.45	1474.36	1474.36	1474.36	1474.36	1474.36	1474.36	1474.36	0	0
1206.43	280.25	1285.45	1285.45	1285.45	1285.45	1285.45	1285.45	1285.45	0	0
1206.63	280.05	1276.12	1276.12	1276.12	1276.12	1276.12	1276.12	1276.12	0	0
1206.83	279.85	1104.65	1104.65	1104.65	1104.65	1104.65	1104.65	1104.65	0	0
1207.03	279.65	1153.63	1153.63	1153.63	1153.63	1153.63	1153.63	1153.63	0	0
1207.23	279.45	1102.86	1102.86	1102.86	1102.86	1102.86	1102.86	1102.86	0	0
1207.43	279.25	1045.71	1045.71	1045.71	1045.71	1045.71	1045.71	1045.71	0	0
1207.63	279.05	1158.46	1158.46	1158.46	1158.46	1158.46	1158.46	1158.46	0	0
1207.83	278.85	1079.59	1079.59	1079.59	1079.59	1079.59	1079.59	1079.59	0	0
1208.03	278.65	1119.24	1119.24	1119.24	1119.24	1119.24	1119.24	1119.24	0	0
1208.23	278.45	903.172	903.172	903.172	903.172	903.172	903.172	903.172	0	0
1208.43	278.25	1067.97	1067.97	1067.97	1067.97	1067.97	1067.97	1067.97	0	0

File: 250418_C-2.2.csv
C1s Scan
	Characteristic Energy eV	1486.68	Acquisition Time s	0.05
KE_C1s Scan	BE_C1s Scan	CPS_C1s Scan	C-C/C-H_1_C1s Scan	C-O_2_C1s Scan	C=O_3_C1s Scan	O-C=O_4_C1s Scan	Background_C1s Scan	Envelope_C1s Scan	Normalised_Residual_C1s Scan	Residual_C1s Scan
1189.31	297.37	3468.42	3468.42	3468.42	3468.42	3468.42	3468.42	3468.42	0	0
1189.51	297.17	3461.32	3461.32	3461.32	3461.32	3461.32	3461.32	3461.32	0	0
1189.71	296.97	3510.48	3510.48	3510.48	3510.48	3510.48	3510.48	3510.48	0	0
1189.91	296.77	3778.04	3778.04	3778.04	3778.04	3778.04	3778.04	3778.04	0	0
1190.11	296.57	3351.14	3351.14	3351.14	3351.14	3351.14	3351.14	3351.14	0	0
1190.31	296.37	3535.52	3535.52	3535.52	3535.52	3535.52	3535.52	3535.52	0	0
1190.51	296.17	3577.76	3577.76	3577.76	3577.76	3577.76	3577.76	3577.76	0	0
1190.71	295.97	3500.74	3500.74	3500.74	3500.74	3500.74	3500.74	3500.74	0	0
1190.91	295.77	3261.34	3261.34	3261.34	3261.34	3261.34	3261.34	3261.34	0	0
1191.11	295.57	4097.8	4097.8	4097.8	4097.8	4097.8	4097.8	4097.8	0	0
1191.31	295.37	3745.42	3745.42	3745.42	3745.42	3745.42	3745.42	3745.42	0	0
1191.51	295.17	3474.46	3474.46	3474.46	3474.46	3474.46	3474.46	3474.46	0	0
1191.71	294.97	3466.9	3466.9	3466.9	3466.9	3466.9	3466.9	3466.9	0	0
1191.91	294.77	3227.98	3227.98	3227.98	3227.98	3227.98	3227.98	3227.98	0	0
1192.11	294.57	3279.02	3279.02	3279.02	3279.02	3279.02	3279.02	3279.02	0	0
1192.31	294.37	3378.32	3378.32	3378.32	3378.32	3378.32	3378.32	3378.32	0	0
1192.51	294.17	3196.58	3196.58	3196.58	3196.58	3196.58	3196.58	3196.58	0	0
1192.71	293.97	3008.92	3008.92	3008.92	3008.92	3008.92	3008.92	3008.92	0	0
1192.91	293.77	2930.48	2930.48	2930.48	2930.48	2930.48	2930.48	2930.48	0	0
1193.11	293.57	3145.16	3145.16	3145.16	3145.16	3145.16	3145.16	3145.16	0	0
1193.31	293.37	3027.28	3027.28	3027.28	3027.28	3027.28	3027.28	3027.28	0	0
1193.51	293.17	3172.82	3172.82	3172.82	3172.82	3172.82	3172.82	3172.82	0	0
1193.71	292.97	2950.72	2950.72	2950.72	2950.72	2950.72	2950.72	2950.72	0	0
1193.91	292.77	2964.8	2964.8	2964.8	2964.8	2964.8	2964.8	2964.8	0	0
1194.11	292.57	3231.84	3231.84	3231.84	3231.84	3231.84	3231.84	3231.84	0	0
1194.31	292.37	2896.22	2896.22	2896.22	2896.22	2896.22	2896.22	2896.22	0	0
1194.51	292.17	3262.24	3262.24	3262.24	3262.24	3262.24	3262.24	3262.24	0	0
1194.71	291.97	3134.46	3134.46	3134.46	3134.46	3134.47	3134.46	3134.47	0	0
1194.91	291.77	3151.44	3151.44	3151.44	3151.44	3151.5	3151.44	3151.5	0	0
1195.11	291.57	2824.08	2824.08	2824.08	2824.08	2824.29	2824.08	2824.29	0	0
1195.31	291.37	2869.4	2869.4	2869.4	2869.4	2870.13	2869.4	2870.13	0	0
1195.51	291.17	2750.64	2750.64	2750.64	2750.64	2752.97	2750.64	2752.97	0	0
1195.71	290.97	2856.96	2946.2	2946.2	2946.21	2953.08	2946.2	2953.08	0.402114	4.80602
1195.91	290.77	3131.5	2946.07	2946.07	2946.07	2964.85	2946.07	2964.85	-0.665891	-8.33229
1196.11	290.57	3099.94	2945.87	2945.87	2945.89	2993.31	2945.87	2993.32	-0.428193	-5.3309
1196.31	290.37	2982.3	2945.76	2945.76	2945.8	3056.47	2945.76	3056.51	0.303841	3.71028
1196.51	290.17	2988.36	2945.6	2945.6	2945.73	3184.01	2945.6	3184.14	0.800839	9.78919
1196.71	289.97	3803.54	2945.05	2945.05	2945.46	3417.75	2945.05	3418.16	-1.39727	-19.269
1196.91	289.77	3706.84	2944.54	2944.54	2945.73	3803.75	2944.54	3804.95	0.360319	4.90539
1197.11	289.57	4681.52	2943.55	2943.57	2946.73	4366.07	2943.55	4369.28	-1.02042	-15.612
1197.31	289.37	5042.42	2942.15	2942.23	2950.03	5067.72	2942.15	5075.68	0.104748	1.66322
1197.51	289.17	5682.2	2940.27	2940.58	2958.29	5773.93	2940.27	5792.26	0.326472	5.50287
1197.71	288.97	6652.72	2937.35	2938.39	2975.39	6268.01	2937.35	6307.1	-0.947514	-17.2811
1197.91	288.77	6610.86	2934.62	2937.92	3008.51	6358.59	2934.62	6435.79	-0.48147	-8.75353
1198.11	288.57	6383.08	2932.01	2941.67	3063.37	6006.17	2932.01	6147.19	-0.660206	-11.7945
1198.31	288.37	5330.02	2929.84	2955.91	3142.03	5354.46	2929.83	5592.75	0.804695	13.1365
1198.51	288.17	4869.9	2928.23	2993.29	3236.62	4625.97	2928.16	4999.61	0.415636	6.48571
1198.71	287.97	4391.64	2927	3077.02	3325.53	3994.67	2926.73	4544.03	0.514184	7.61933
1198.91	287.77	4156.36	2926.52	3245.52	3379.1	3535.09	2925.5	4309.72	0.531924	7.66816
1199.11	287.57	4462.24	2928.19	3551.69	3375.37	3242.74	2924.58	4324.27	-0.46185	-6.89863
1199.31	287.37	4735.54	2934.94	4049.05	3314.68	3075.72	2923.11	4605.06	-0.423965	-6.52378
1199.51	287.17	5317.92	2957.34	4761.2	3220.93	2989.08	2921.52	5163.99	-0.47198	-7.69626
1199.71	286.97	6109.68	3019.54	5627.76	3123.12	2946.92	2919.27	5959.53	-0.429539	-7.50752
1199.91	286.77	6863.56	3175.83	6466.94	3041.17	2926.59	2916.12	6862.16	-0.00377803	-0.0699882
1200.11	286.57	7504.28	3534.71	7011.66	2982.36	2916.25	2912.58	7707.23	0.523862	10.1474
1200.31	286.37	8923.38	4283.54	7044.83	2944.12	2909.64	2908.45	8456.78	-1.10451	-23.3302
1200.51	286.17	8815.24	5702.09	6550.48	2920.31	2903.88	2903.53	9366.18	1.31213	27.5472
1200.71	285.97	10867.3	8122.59	5725.49	2904.76	2897.58	2897.48	10958	0.1946	4.53615
1200.91	285.77	13858.9	11786.4	4839.12	2892.13	2889.23	2889.21	13739.3	-0.227156	-5.97961
1201.11	285.57	18043	16578.1	4088	2879.65	2878.57	2878.57	17788.6	-0.423439	-12.7183
1201.31	285.37	24414	21728.9	3544.82	2863.72	2863.35	2863.35	22410.7	-2.86684	-100.163
1201.51	285.17	25750.2	25807	3197.53	2846.07	2845.95	2845.95	26158.7	0.569213	20.4244
1201.71	284.97	27914.4	27290.5	2993.14	2826.24	2826.2	2826.2	27457.5	-0.611483	-22.8446
1201.91	284.77	24607.6	25545.5	2881.38	2808.26	2808.25	2808.25	25618.6	1.44118	50.552
1202.11	284.57	22221.2	21298.4	2821.83	2792.23	2792.23	2792.23	21328	-1.33983	-44.6599
1202.31	284.37	16421.7	16100.9	2791.81	2780.73	2780.73	2780.73	16112	-0.540404	-15.4851
1202.51	284.17	11082.9	11356	2776.99	2773.15	2773.15	2773.15	11359.9	0.588208	13.8466
1202.71	283.97	8297.46	7773.8	2769.47	2768.25	2768.25	2768.25	7775.03	-1.28245	-26.1216
1202.91	283.77	6068.44	5429.74	2765.7	2765.34	2765.34	2765.34	5430.1	-1.8323	-31.9169
1203.11	283.57	4075.12	4065.89	2764.16	2764.06	2764.06	2764.06	4065.99	-0.0319722	-0.456381
1203.31	283.37	3451.4	3349.25	2763.32	2763.29	2763.29	2763.29	3349.27	-0.388717	-5.10642
1203.51	283.17	3008.58	3006.28	2762.84	2762.83	2762.83	2762.83	3006.29	-0.00934593	-0.114627
1203.71	282.97	3763.88	2855.55	2762.09	2762.09	2762.09	2762.09	2855.55	-3.31064	-45.4167
1203.91	282.77	2784.02	2795.22	2762.06	2762.06	2762.06	2762.06	2795.22	0.0474679	0.560042
1204.11	282.57	3188.58	2772.71	2761.84	2761.84	2761.84	2761.84	2772.71	-1.64679	-20.7933
1204.31	282.37	3033.2	2765	2761.7	2761.7	2761.7	2761.7	2765	-1.08892	-13.41
1204.51	282.17	2774.76	2762.42	2761.49	2761.49	2761.49	2761.49	2762.42	-0.0524011	-0.617218
1204.71	281.97	2480.78	2761.5	2761.26	2761.26	2761.26	2761.26	2761.5	1.26027	14.0359
1204.91	281.77	2850.36	2761.27	2761.22	2761.22	2761.22	2761.22	2761.27	-0.37312	-4.45434
1205.11	281.57	2828.26	2761.15	2761.14	2761.14	2761.14	2761.14	2761.15	-0.28216	-3.35537
1205.31	281.37	2424	2424	2424	2424	2424	2424	2424	0	0
1205.51	281.17	2406.6	2406.6	2406.6	2406.6	2406.6	2406.6	2406.6	0	0
1205.71	280.97	2729.1	2729.1	2729.1	2729.1	2729.1	2729.1	2729.1	0	0
1205.91	280.77	2974.28	2974.28	2974.28	2974.28	2974.28	2974.28	2974.28	0	0
1206.11	280.57	2681.04	2681.04	2681.04	2681.04	2681.04	2681.04	2681.04	0	0
1206.31	280.37	2889.74	2889.74	2889.74	2889.74	2889.74	2889.74	2889.74	0	0
1206.51	280.17	2767.56	2767.56	2767.56	2767.56	2767.56	2767.56	2767.56	0	0
1206.71	279.97	2758.86	2758.86	2758.86	2758.86	2758.86	2758.86	2758.86	0	0
1206.91	279.77	3048.44	3048.44	3048.44	3048.44	3048.44	3048.44	3048.44	0	0
1207.11	279.57	3084.64	3084.64	3084.64	3084.64	3084.64	3084.64	3084.64	0	0
1207.31	279.37	2614.46	2614.46	2614.46	2614.46	2614.46	2614.46	2614.46	0	0
1207.51	279.17	2501.52	2501.52	2501.52	2501.52	2501.52	2501.52	2501.52	0	0
1207.71	278.97	2404.74	2404.74	2404.74	2404.74	2404.74	2404.74	2404.74	0	0
1207.91	278.77	2783.4	2783.4	2783.4	2783.4	2783.4	2783.4	2783.4	0	0
1208.11	278.57	2793.5	2793.5	2793.5	2793.5	2793.5	2793.5	2793.5	0	0
1208.31	278.37	2489.78	2489.78	2489.78	2489.78	2489.78	2489.78	2489.78	0	0

File: 250418_C-2.3.csv
C1s Scan
	Characteristic Energy eV	1486.68	Acquisition Time s	0.05
KE_C1s Scan	BE_C1s Scan	CPS_C1s Scan	C-C/C-H_1_C1s Scan	C-O_2_C1s Scan	C=O_3_C1s Scan	O-C=O_4_C1s Scan	Background_C1s Scan	Envelope_C1s Scan	Normalised_Residual_C1s Scan	Residual_C1s Scan
1189.28	297.396	4063.82	4063.82	4063.82	4063.82	4063.82	4063.82	4063.82	0	0
1189.48	297.196	3808.8	3808.8	3808.8	3808.8	3808.8	3808.8	3808.8	0	0
1189.68	296.996	4329.06	4329.06	4329.06	4329.06	4329.06	4329.06	4329.06	0	0
1189.88	296.796	4193.74	4193.74	4193.74	4193.74	4193.74	4193.74	4193.74	0	0
1190.08	296.596	3941.6	3941.6	3941.6	3941.6	3941.6	3941.6	3941.6	0	0
1190.28	296.396	3941.9	3941.9	3941.9	3941.9	3941.9	3941.9	3941.9	0	0
1190.48	296.196	4026.54	4026.54	4026.54	4026.54	4026.54	4026.54	4026.54	0	0
1190.68	295.996	4224.96	4224.96	4224.96	4224.96	4224.96	4224.96	4224.96	0	0
1190.88	295.796	3810.04	3810.04	3810.04	3810.04	3810.04	3810.04	3810.04	0	0
1191.08	295.596	3510.62	3510.62	3510.62	3510.62	3510.62	3510.62	3510.62	0	0
1191.28	295.396	3303.7	3303.7	3303.7	3303.7	3303.7	3303.7	3303.7	0	0
1191.48	295.196	3977.68	3977.68	3977.68	3977.68	3977.68	3977.68	3977.68	0	0
1191.68	294.996	3519.94	3519.94	3519.94	3519.94	3519.94	3519.94	3519.94	0	0
1191.88	294.796	3457.44	3457.44	3457.44	3457.44	3457.44	3457.44	3457.44	0	0
1192.08	294.596	3511.14	3511.14	3511.14	3511.14	3511.14	3511.14	3511.14	0	0
1192.28	294.396	3488.08	3488.08	3488.08	3488.08	3488.08	3488.08	3488.08	0	0
1192.48	294.196	3157.72	3157.72	3157.72	3157.72	3157.72	3157.72	3157.72	0	0
1192.68	293.996	3405.24	3405.24	3405.24	3405.24	3405.24	3405.24	3405.24	0	0
1192.88	293.796	3453.34	3453.34	3453.34	3453.34	3453.34	3453.34	3453.34	0	0
1193.08	293.596	3459.58	3459.58	3459.58	3459.58	3459.58	3459.58	3459.58	0	0
1193.28	293.396	2864.92	2864.92	2864.92	2864.92	2864.92	2864.92	2864.92	0	0
1193.48	293.196	3496.02	3496.02	3496.02	3496.02	3496.02	3496.02	3496.02	0	0
1193.68	292.996	3341.42	3341.42	3341.42	3341.42	3341.42	3341.42	3341.42	0	0
1193.88	292.796	2717.76	2717.76	2717.76	2717.76	2717.76	2717.76	2717.76	0	0
1194.08	292.596	3390.1	3390.1	3390.1	3390.1	3390.1	3390.1	3390.1	0	0
1194.28	292.396	3644.62	3644.62	3644.62	3644.62	3644.62	3644.62	3644.62	0	0
1194.48	292.196	3353.48	3353.48	3353.48	3353.48	3353.48	3353.48	3353.48	0	0
1194.68	291.996	3136.7	3136.7	3136.7	3136.7	3136.71	3136.7	3136.71	0	0
1194.88	291.796	3407.78	3407.78	3407.78	3407.78	3407.84	3407.78	3407.84	0	0
1195.08	291.596	3079.58	3079.58	3079.58	3079.58	3079.8	3079.58	3079.8	0	0
1195.28	291.396	2725.62	2725.62	2725.62	2725.62	2726.37	2725.62	2726.37	0	0
1195.48	291.196	3061.92	3061.92	3061.92	3061.92	3064.31	3061.92	3064.31	0	0
1195.68	290.996	2958.28	3105.42	3105.42	3105.42	3112.51	3105.42	3112.51	0.63406	7.71143
1195.88	290.796	3400.1	3105.24	3105.24	3105.24	3124.64	3105.24	3124.64	-1.05631	-13.7728
1196.08	290.596	3515.32	3105.04	3105.04	3105.06	3154.16	3105.04	3154.18	-1.36201	-18.0572
1196.28	290.396	3356.32	3104.93	3104.93	3104.98	3219.83	3104.93	3219.88	-0.526606	-6.82186
1196.48	290.196	3319.36	3104.83	3104.83	3104.99	3352.86	3104.83	3353.03	0.130662	1.68331
1196.68	289.996	3554.8	3104.61	3104.61	3105.13	3597.49	3104.61	3598.02	0.162098	2.16108
1196.88	289.796	3844.86	3104.05	3104.06	3105.6	4001.98	3104.05	4003.54	0.572213	7.93383
1197.08	289.596	4541.38	3103.04	3103.06	3107.26	4593	3103.04	4597.24	0.185336	2.79279
1197.28	289.396	5487.06	3101.45	3101.52	3112.1	5332.72	3101.45	5343.43	-0.433559	-7.18131
1197.48	289.196	6273.28	3099.24	3099.5	3124.06	6079.64	3099.24	6104.72	-0.475888	-8.42825
1197.68	288.996	6941.32	3096.48	3097.37	3149.84	6606.19	3096.48	6660.44	-0.753846	-14.0439
1197.88	288.796	6907.36	3093.59	3096.42	3199.17	6707.71	3093.59	6816.11	-0.245503	-4.56244
1198.08	288.596	6455.06	3090.78	3099.05	3282.17	6340.09	3090.77	6539.77	0.235766	4.23562
1198.28	288.396	6539.48	3088.34	3110.77	3404.17	5653.6	3088.33	5991.89	-1.51414	-27.3793
1198.48	288.196	5673.12	3086.52	3142.73	3556.48	4883.78	3086.47	5410.1	-0.78083	-13.1508
1198.68	287.996	4817.78	3085.23	3215.32	3708.6	4215.79	3085.01	4969.89	0.490042	7.60575
1198.88	287.796	4566.92	3084.65	3362.34	3812.98	3729.23	3083.82	4737.74	0.565216	8.54104
1199.08	287.596	4752.62	3085.6	3630.7	3827.99	3419.35	3082.6	4715.84	-0.119286	-1.83883
1199.28	287.396	4884.94	3091.17	4069.54	3746.21	3242.58	3081.13	4906.08	0.0676371	1.05706
1199.48	287.196	5826.72	3110.17	4700.41	3600.54	3150.64	3079.2	5324.15	-1.47221	-25.1285
1199.68	286.996	5651.16	3165.53	5473.02	3440.12	3106.38	3077.17	5953.55	0.899453	15.1193
1199.88	286.796	6528.24	3307.58	6228.11	3301.61	3085.57	3074.53	6699.29	0.473393	8.55273
1200.08	286.596	7607.34	3639.21	6726.86	3200.25	3075.12	3071.26	7427.65	-0.460665	-8.98435
1200.28	286.396	8500.1	4345.09	6770.94	3134.29	3068.52	3067.28	8117.02	-0.929099	-19.154
1200.48	286.196	9013.98	5712.5	6340.3	3095.14	3063.51	3063.14	9022.03	0.0189635	0.402589
1200.68	285.996	11005.7	8102.85	5606.25	3071.53	3057.54	3057.44	10665.9	-0.724276	-16.9902
1200.88	285.796	12869.1	11828.5	4811.45	3055.71	3050.01	3049.98	13595.7	1.43229	36.332
1201.08	285.596	18449.8	16883.1	4133.26	3040.99	3038.85	3038.84	17979.7	-0.774025	-23.5091
1201.28	285.396	23350	22606.2	3642.02	3024.9	3024.15	3024.15	23224.8	-0.18323	-6.26074
1201.48	285.196	27412.4	27547.9	3324.98	3005.94	3005.7	3005.7	27867.4	0.614542	22.7515
1201.68	284.996	31336.8	29951.4	3136.01	2984.36	2984.28	2984.28	30103.2	-1.55827	-61.6815
1201.88	284.796	28730.4	28813.7	3030.5	2964.02	2964	2964	28880.2	0.197679	7.49232
1202.08	284.596	25291.4	24616	2973.34	2946.42	2946.41	2946.41	24642.9	-0.911816	-32.4249
1202.28	284.396	19607.8	18959.7	2942.56	2932.48	2932.48	2932.48	18969.8	-1.01877	-31.8988
1202.48	284.196	13803.7	13505.7	2926.63	2923.14	2923.14	2923.14	13509.2	-0.560588	-14.7274
1202.68	283.996	9835.46	9226.09	2918.36	2917.24	2917.24	2917.24	9227.21	-1.37142	-30.4126
1202.88	283.796	6486.44	6340.54	2914.54	2914.21	2914.21	2914.21	6340.87	-0.40416	-7.2785
1203.08	283.596	5330.38	4618.24	2912.43	2912.34	2912.34	2912.34	4618.33	-2.1808	-35.6025
1203.28	283.396	4443.8	3693.04	2911.34	2911.32	2911.32	2911.32	3693.06	-2.51822	-37.5368
1203.48	283.196	3754.64	3241.15	2910.69	2910.68	2910.68	2910.68	3241.15	-1.87383	-25.6743
1203.68	282.996	3788.08	3039.03	2910	2910	2910	2910	3039.03	-2.72136	-37.4525
1203.88	282.796	3705.74	2956	2909.38	2909.38	2909.38	2909.38	2956	-2.75395	-37.4868
1204.08	282.596	3452.36	2924.64	2909.05	2909.05	2909.05	2909.05	2924.64	-2.00831	-26.3861
1204.28	282.396	3096.56	2913.55	2908.73	2908.73	2908.73	2908.73	2913.55	-0.735396	-9.15053
1204.48	282.196	2599.48	2909.85	2908.48	2908.48	2908.48	2908.48	2909.85	1.36121	15.5187
1204.68	281.996	3090.78	2908.74	2908.37	2908.37	2908.37	2908.37	2908.74	-0.732193	-9.10216
1204.88	281.796	2851.28	2908.28	2908.19	2908.19	2908.19	2908.19	2908.28	0.238692	2.84998
1205.08	281.596	3025.66	2908	2907.98	2907.98	2907.98	2907.98	2908	-0.478299	-5.88294
1205.28	281.396	2676.5	2907.88	2907.88	2907.88	2907.88	2907.88	2907.88	1.00007	11.569
1205.48	281.196	3164.2	3164.2	3164.2	3164.2	3164.2	3164.2	3164.2	0	0
1205.68	280.996	2667.88	2667.88	2667.88	2667.88	2667.88	2667.88	2667.88	0	0
1205.88	280.796	3215.42	3215.42	3215.42	3215.42	3215.42	3215.42	3215.42	0	0
1206.08	280.596	2742.1	2742.1	2742.1	2742.1	2742.1	2742.1	2742.1	0	0
1206.28	280.396	2676.04	2676.04	2676.04	2676.04	2676.04	2676.04	2676.04	0	0
1206.48	280.196	3053.84	3053.84	3053.84	3053.84	3053.84	3053.84	3053.84	0	0
1206.68	279.996	2721.64	2721.64	2721.64	2721.64	2721.64	2721.64	2721.64	0	0
1206.88	279.796	2990.26	2990.26	2990.26	2990.26	2990.26	2990.26	2990.26	0	0
1207.08	279.596	2366.9	2366.9	2366.9	2366.9	2366.9	2366.9	2366.9	0	0
1207.28	279.396	2847.88	2847.88	2847.88	2847.88	2847.88	2847.88	2847.88	0	0
1207.48	279.196	2977.36	2977.36	2977.36	2977.36	2977.36	2977.36	2977.36	0	0
1207.68	278.996	3252.84	3252.84	3252.84	3252.84	3252.84	3252.84	3252.84	0	0
1207.88	278.796	2995.72	2995.72	2995.72	2995.72	2995.72	2995.72	2995.72	0	0
1208.08	278.596	2947.24	2947.24	2947.24	2947.24	2947.24	2947.24	2947.24	0	0
1208.28	278.396	2897.32	2897.32	2897.32	2897.32	2897.32	2897.32	2897.32	0	0