Folder: stickleback_plastic_degradation/XPS/XPS (part 5)

File: 241019_C-2.1.csv
C1s Scan
	Characteristic Energy eV	1486.68	Acquisition Time s	0.05
KE_C1s Scan	BE_C1s Scan	CPS_C1s Scan	C-C/C-H_1_C1s Scan	C-O_2_C1s Scan	C=O_3_C1s Scan	O-C=O_4_C1s Scan	Background_C1s Scan	Envelope_C1s Scan	Normalised_Residual_C1s Scan	Residual_C1s Scan
1189.44	297.245	1126.78	1126.78	1126.78	1126.78	1126.78	1126.78	1126.78	0	0
1189.64	297.045	1171.38	1171.38	1171.38	1171.38	1171.38	1171.38	1171.38	0	0
1189.84	296.845	994.306	994.306	994.306	994.306	994.306	994.306	994.306	0	0
1190.04	296.645	1151.72	1151.72	1151.72	1151.72	1151.72	1151.72	1151.72	0	0
1190.24	296.445	1192.52	1192.52	1192.52	1192.52	1192.52	1192.52	1192.52	0	0
1190.44	296.245	1371.08	1371.08	1371.08	1371.08	1371.08	1371.08	1371.08	0	0
1190.64	296.045	1102.22	1102.22	1102.22	1102.22	1102.22	1102.22	1102.22	0	0
1190.84	295.845	1299.46	1299.46	1299.46	1299.46	1299.46	1299.46	1299.46	0	0
1191.04	295.645	1268.56	1268.56	1268.56	1268.56	1268.56	1268.56	1268.56	0	0
1191.24	295.445	1162.73	1162.73	1162.73	1162.73	1162.73	1162.73	1162.73	0	0
1191.44	295.245	1053.64	1053.64	1053.64	1053.64	1053.64	1053.64	1053.64	0	0
1191.64	295.045	1176.45	1176.45	1176.45	1176.45	1176.45	1176.45	1176.45	0	0
1191.84	294.845	1114.31	1114.31	1114.31	1114.31	1114.31	1114.31	1114.31	0	0
1192.04	294.645	1232.29	1232.29	1232.29	1232.29	1232.29	1232.29	1232.29	0	0
1192.24	294.445	1006.2	1006.2	1006.2	1006.2	1006.2	1006.2	1006.2	0	0
1192.44	294.245	1254.98	1254.98	1254.98	1254.98	1254.98	1254.98	1254.98	0	0
1192.64	294.045	980.804	980.804	980.804	980.804	980.804	980.804	980.804	0	0
1192.84	293.845	1054.83	1054.83	1054.83	1054.83	1054.83	1054.83	1054.83	0	0
1193.04	293.645	1111.32	1111.32	1111.32	1111.32	1111.32	1111.32	1111.32	0	0
1193.24	293.445	739.062	739.062	739.062	739.062	739.062	739.062	739.062	0	0
1193.44	293.245	963.108	963.108	963.108	963.108	963.108	963.108	963.108	0	0
1193.64	293.045	947.444	947.444	947.444	947.444	947.444	947.444	947.444	0	0
1193.84	292.845	977.622	977.622	977.622	977.622	977.622	977.622	977.622	0	0
1194.04	292.645	1190	1190	1190	1190	1190	1190	1190	0	0
1194.24	292.445	987.218	987.218	987.218	987.218	987.22	987.218	987.22	0	0
1194.44	292.245	950.71	950.71	950.71	950.71	950.719	950.71	950.719	0	0
1194.64	292.045	760.616	760.616	760.616	760.616	760.65	760.616	760.65	0	0
1194.84	291.845	1117.32	1117.32	1117.32	1117.32	1117.43	1117.32	1117.43	0	0
1195.04	291.645	625.296	625.296	625.296	625.296	625.653	625.296	625.654	0	0
1195.24	291.445	922.38	922.38	922.38	922.38	923.421	922.38	923.421	0	0
1195.44	291.245	1037.73	1037.73	1037.73	1037.73	1040.56	1037.73	1040.56	0	0
1195.64	291.045	944.842	986.97	986.97	986.971	994.124	986.97	994.126	0.358515	2.46418
1195.84	290.845	849.772	986.828	986.828	986.832	1003.67	986.828	1003.68	1.18056	7.69528
1196.04	290.645	918.7	986.661	986.661	986.678	1023.75	986.661	1023.77	0.775141	5.25355
1196.24	290.445	1231.36	986.458	986.458	986.514	1062.28	986.458	1062.33	-1.07711	-8.45161
1196.44	290.245	779.848	986.291	986.291	986.463	1130.17	986.291	1130.34	2.80644	17.5245
1196.64	290.045	979.216	986.144	986.145	986.633	1238.68	986.144	1239.17	1.85753	12.9975
1196.84	289.845	1488.45	985.765	985.767	987.067	1392.93	985.765	1394.23	-0.546065	-4.71081
1197.04	289.645	1581.22	985.011	985.017	988.233	1584.2	985.011	1587.43	0.0349195	0.310491
1197.24	289.445	2170.34	983.504	983.525	990.942	1779.76	983.504	1787.22	-1.83888	-19.1559
1197.44	289.245	2008.32	981.835	981.907	997.832	1928.1	981.835	1944.17	-0.320081	-3.20746
1197.64	289.045	2049.82	980.518	980.754	1012.45	1978.39	980.518	2010.56	-0.193887	-1.96287
1197.84	288.845	1836.67	979.212	979.934	1038.45	1910.98	979.212	1970.94	0.70056	6.71345
1198.04	288.645	1924.31	977.976	980.023	1079.26	1750.22	977.975	1853.56	-0.360655	-3.53765
1198.24	288.445	1727.22	976.814	982.271	1135.75	1550.07	976.81	1714.47	-0.0685801	-0.637318
1198.44	288.245	1822.1	975.636	989.129	1202.41	1360.5	975.617	1600.82	-1.15914	-11.0639
1198.64	288.045	1255.36	974.988	1006.11	1266.34	1210.87	974.909	1533.57	1.75583	13.9108
1198.84	287.845	1557.54	974.504	1041.3	1308.03	1107.21	974.198	1508.45	-0.278146	-2.45458
1199.04	287.645	1783.16	974.355	1107.21	1312.31	1042.71	973.248	1516.85	-1.4102	-13.3156
1199.24	287.445	1476.35	976.259	1221.08	1277.33	1006.17	972.56	1563.16	0.505169	4.34027
1199.44	287.245	1424.87	983.208	1396.74	1215.68	986.953	971.784	1667.22	1.43567	12.1179
1199.64	287.045	1886.66	1002.86	1637.19	1145.52	976.619	970.25	1851.44	-0.181343	-1.7613
1199.84	286.845	2044.68	1054.49	1920.21	1082.77	970.96	968.469	2123.03	0.387437	3.9174
1200.04	286.645	2451.4	1176.13	2189.53	1034.61	967.329	966.418	2468.34	0.0765067	0.847016
1200.24	286.445	2861.88	1435.73	2365	1001.28	964.042	963.733	2874.85	0.0542304	0.648715
1200.44	286.245	3381.88	1939.51	2383.94	979.655	960.619	960.52	3382.16	0.00108822	0.0141508
1200.64	286.045	4301.18	2821.54	2235.95	965.408	956.377	956.348	4110.23	-0.651058	-9.54769
1200.84	285.845	5045.62	4197.28	1974.58	954.471	950.48	950.472	5225.39	0.565906	8.98849
1201.04	285.645	6821.18	6065.6	1678.45	944.049	942.412	942.41	6803.29	-0.0484486	-0.894739
1201.24	285.445	8873.74	8182.36	1411.47	932.038	931.409	931.409	8663.05	-0.500118	-10.5344
1201.44	285.245	10542.7	10010.9	1204.41	918.231	918.007	918.007	10297.6	-0.533888	-12.2578
1201.64	285.045	11112.9	10901.9	1061.49	903.831	903.757	903.757	11059.7	-0.112843	-2.65996
1201.84	284.845	10768.9	10479.7	969.516	889.161	889.137	889.137	10560.1	-0.449946	-10.4407
1202.04	284.645	9739.94	8921.75	914.722	876.665	876.658	876.658	8959.82	-1.76753	-39.0059
1202.24	284.445	7157.52	6820.96	883.802	867.005	867.003	867.003	6837.77	-0.845123	-15.9877
1202.44	284.245	4901.74	4794.04	867.47	860.587	860.586	860.586	4800.92	-0.322003	-5.04103
1202.64	284.045	4020.66	3202.03	858.619	855.974	855.974	855.974	3204.68	-2.87752	-40.7992
1202.84	283.845	1954.85	2128.26	854.527	853.583	853.583	853.583	2129.2	0.881763	8.71754
1203.04	283.645	1536.16	1487.21	852.651	852.336	852.336	852.336	1487.52	-0.277465	-2.43171
1203.24	283.445	1246.94	1142.52	851.586	851.488	851.488	851.488	1142.61	-0.660649	-5.2165
1203.44	283.245	1277.75	973.754	850.713	850.685	850.685	850.685	973.782	-1.90147	-15.1984
1203.64	283.045	1286.52	898.215	850.155	850.147	850.147	850.147	898.222	-2.42073	-19.4151
1203.84	282.845	1121.58	867.145	849.759	849.757	849.757	849.757	867.147	-1.69883	-12.7218
1204.04	282.645	982.45	855.428	849.612	849.611	849.611	849.611	855.429	-0.906164	-6.35107
1204.24	282.445	776.408	851.356	849.557	849.557	849.557	849.557	851.356	0.601452	3.74741
1204.44	282.245	828.512	849.952	849.437	849.437	849.437	849.437	849.952	0.166554	1.07199
1204.64	282.045	866.134	849.518	849.382	849.382	849.382	849.382	849.518	-0.126246	-0.830796
1204.84	281.845	702.694	849.181	849.147	849.147	849.147	849.147	849.181	1.23566	7.32433
1205.04	281.645	728.996	849.029	849.021	849.021	849.021	849.021	849.029	0.994082	6.00164
1205.24	281.445	762.07	848.884	848.882	848.882	848.882	848.882	848.884	0.703196	4.34069
1205.44	281.245	975.724	848.754	848.754	848.754	848.754	848.754	848.754	-0.908915	-6.34851
1205.64	281.045	739.576	848.531	848.531	848.531	848.531	848.531	848.531	0.895859	5.44774
1205.84	280.845	881.19	848.397	848.397	848.397	848.397	848.397	848.397	-0.247023	-1.63967
1206.04	280.645	1025.77	848.266	848.266	848.266	848.266	848.266	848.266	-1.23928	-8.87521
1206.24	280.445	945.54	848.186	848.186	848.186	848.186	848.186	848.186	-0.707944	-4.8677
1206.44	280.245	754.432	754.432	754.432	754.432	754.432	754.432	754.432	0	0
1206.64	280.045	823.858	823.858	823.858	823.858	823.858	823.858	823.858	0	0
1206.84	279.845	745.53	745.53	745.53	745.53	745.53	745.53	745.53	0	0
1207.04	279.645	790.928	790.928	790.928	790.928	790.928	790.928	790.928	0	0
1207.24	279.445	828.148	828.148	828.148	828.148	828.148	828.148	828.148	0	0
1207.44	279.245	658.092	658.092	658.092	658.092	658.092	658.092	658.092	0	0
1207.64	279.045	766.484	766.484	766.484	766.484	766.484	766.484	766.484	0	0
1207.84	278.845	970.318	970.318	970.318	970.318	970.318	970.318	970.318	0	0
1208.04	278.645	640.082	640.082	640.082	640.082	640.082	640.082	640.082	0	0
1208.24	278.445	520.586	520.586	520.586	520.586	520.586	520.586	520.586	0	0
1208.44	278.245	1064.62	1064.62	1064.62	1064.62	1064.62	1064.62	1064.62	0	0

File: 241019_C-2.2.csv
C1s Scan
	Characteristic Energy eV	1486.68	Acquisition Time s	0.05
KE_C1s Scan	BE_C1s Scan	CPS_C1s Scan	C-C/C-H_1_C1s Scan	C-O_2_C1s Scan	C=O_3_C1s Scan	O-C=O_4_C1s Scan	Background_C1s Scan	Envelope_C1s Scan	Normalised_Residual_C1s Scan	Residual_C1s Scan
1188.93	297.749	1530.03	1530.03	1530.03	1530.03	1530.03	1530.03	1530.03	0	0
1189.13	297.549	1512.96	1512.96	1512.96	1512.96	1512.96	1512.96	1512.96	0	0
1189.33	297.349	1358.33	1358.33	1358.33	1358.33	1358.33	1358.33	1358.33	0	0
1189.53	297.149	1395.46	1395.46	1395.46	1395.46	1395.46	1395.46	1395.46	0	0
1189.73	296.949	1232.02	1232.02	1232.02	1232.02	1232.02	1232.02	1232.02	0	0
1189.93	296.749	1044.1	1044.1	1044.1	1044.1	1044.1	1044.1	1044.1	0	0
1190.13	296.549	1272.77	1272.77	1272.77	1272.77	1272.77	1272.77	1272.77	0	0
1190.33	296.349	1240.74	1240.74	1240.74	1240.74	1240.74	1240.74	1240.74	0	0
1190.53	296.149	1136.4	1136.4	1136.4	1136.4	1136.4	1136.4	1136.4	0	0
1190.73	295.949	1173.4	1173.4	1173.4	1173.4	1173.4	1173.4	1173.4	0	0
1190.93	295.749	1117.4	1117.4	1117.4	1117.4	1117.4	1117.4	1117.4	0	0
1191.13	295.549	993.542	993.542	993.542	993.542	993.542	993.542	993.542	0	0
1191.33	295.349	1041.25	1041.25	1041.25	1041.25	1041.25	1041.25	1041.25	0	0
1191.53	295.149	756.582	756.582	756.582	756.582	756.582	756.582	756.582	0	0
1191.73	294.949	1032.78	1032.78	1032.78	1032.78	1032.78	1032.78	1032.78	0	0
1191.93	294.749	785.826	785.826	785.826	785.826	785.826	785.826	785.826	0	0
1192.13	294.549	801.178	801.178	801.178	801.178	801.178	801.178	801.178	0	0
1192.33	294.349	663.036	663.036	663.036	663.036	663.036	663.036	663.036	0	0
1192.53	294.149	546.292	546.292	546.292	546.292	546.292	546.292	546.292	0	0
1192.73	293.949	604.728	604.728	604.728	604.728	604.728	604.728	604.728	0	0
1192.93	293.749	567.71	567.71	567.71	567.71	567.71	567.71	567.71	0	0
1193.13	293.549	618.036	618.036	618.036	618.036	618.036	618.036	618.036	0	0
1193.33	293.349	565.566	565.566	565.566	565.566	565.566	565.566	565.566	0	0
1193.53	293.149	534.528	534.528	534.528	534.528	534.528	534.528	534.528	0	0
1193.73	292.949	554.422	554.422	554.422	554.422	554.422	554.422	554.422	0	0
1193.93	292.749	533.26	533.26	533.26	533.26	533.26	533.26	533.26	0	0
1194.13	292.549	432.19	432.19	432.19	432.19	432.191	432.19	432.191	0	0
1194.33	292.349	530.886	530.886	530.886	530.886	530.889	530.886	530.889	0	0
1194.53	292.149	339.134	339.134	339.134	339.134	339.144	339.134	339.144	0	0
1194.73	291.949	236.2	236.2	236.2	236.2	236.234	236.2	236.234	0	0
1194.93	291.749	280.314	280.314	280.314	280.314	280.422	280.314	280.422	0	0
1195.13	291.549	289.914	289.914	289.914	289.914	290.23	289.914	290.23	0	0
1195.33	291.349	245.878	245.878	245.878	245.879	246.745	245.878	246.746	0	0
1195.53	291.149	314.308	314.308	314.308	314.31	316.54	314.308	316.542	0	0
1195.73	290.949	353.946	343.977	343.977	343.986	349.338	343.977	349.347	-0.054664	-0.229961
1195.93	290.749	178.412	343.95	343.95	343.981	356.061	343.95	356.092	2.9745	8.88403
1196.13	290.549	210.176	343.935	343.935	344.032	369.447	343.935	369.544	2.45808	7.96842
1196.33	290.349	315.32	343.921	343.921	344.213	394.205	343.921	394.498	0.997041	3.95889
1196.53	290.149	476.968	343.902	343.902	344.721	436.223	343.902	437.042	-0.408783	-1.99628
1196.73	289.949	318.434	343.887	343.889	346.029	501.192	343.887	503.334	2.31693	9.24501
1196.93	289.749	515.844	343.845	343.849	349.114	591.551	343.845	596.825	0.797277	4.04905
1197.13	289.549	794.474	343.779	343.796	355.871	701.165	343.779	713.274	-0.644171	-4.06
1197.33	289.349	783.42	343.679	343.739	369.704	812.193	343.679	838.279	0.438261	2.74293
1197.53	289.149	931.126	343.57	343.767	395.879	896.62	343.57	949.126	0.131903	0.900004
1197.73	288.949	1068.44	343.423	344.034	441.423	927.206	343.423	1025.82	-0.291597	-2.13129
1197.93	288.749	1261.09	343.256	345.015	514.157	892.677	343.256	1065.34	-1.23258	-9.78749
1198.13	288.549	1009.74	343.128	347.906	618.547	805.828	343.128	1086.02	0.53677	3.81399
1198.33	288.349	1077.33	342.983	355.092	751.061	693.865	342.982	1114.05	0.250192	1.83625
1198.53	288.149	996.788	342.855	371.599	893.557	584.757	342.853	1164.21	1.18575	8.37104
1198.73	287.949	1240.67	342.663	406.627	1013.55	495.605	342.651	1230.49	-0.0646441	-0.509146
1198.93	287.749	1325.09	342.527	475.258	1074.3	431.825	342.461	1296.52	-0.175457	-1.42816
1199.13	287.549	1609.39	342.616	600.507	1054.84	390.69	342.266	1361.85	-1.37973	-12.3768
1199.33	287.349	1343.35	343.709	808.864	961.282	366.575	342.056	1454.26	0.676655	5.54558
1199.53	287.149	1837.35	348.798	1124.9	825.571	353.359	341.788	1627.27	-1.09592	-10.5041
1199.73	286.949	1871.96	368.213	1553.02	684.136	346.618	341.501	1927.48	0.286945	2.77609
1199.93	286.749	2234.14	432.669	2055.98	563.17	343.255	341.136	2371.67	0.650611	6.87641
1200.13	286.549	2855.88	622.686	2541.57	473.145	341.411	340.592	2957.04	0.423273	5.05797
1200.33	286.349	3376.28	1121.62	2879.94	413.511	340.299	340.001	3735.37	1.38186	17.9543
1200.53	286.149	5118.9	2286.34	2956.58	377.088	339.291	339.19	4941.73	-0.553716	-8.8585
1200.73	285.949	7415.6	4672.39	2744.2	356.168	337.93	337.898	7097	-0.827285	-15.9299
1200.93	285.749	10921.3	8901.59	2317.28	344.206	335.981	335.972	10891.1	-0.0646274	-1.51022
1201.13	285.549	16356.2	15196.6	1805.12	336.593	333.128	333.125	16672.1	0.552241	15.7927
1201.33	285.349	23737	22623.5	1324.6	330.125	328.753	328.752	23620.7	-0.168803	-5.81538
1201.53	285.149	29140.4	28702.3	942.456	323.715	323.209	323.209	29322.1	0.237978	9.08384
1201.73	284.949	30279.8	30508.7	673.235	317.403	317.228	317.228	30864.9	0.751895	29.2563
1201.93	284.749	28612.4	27029.6	501.697	311.542	311.485	311.485	27219.8	-1.84087	-69.6284
1202.13	284.549	20039.8	20142.3	401.979	307.105	307.088	307.088	20237.2	0.311751	9.86823
1202.33	284.349	13105.8	12878.9	348.428	304.322	304.317	304.317	12923	-0.357062	-9.14029
1202.53	284.149	6564.26	7234.66	322.054	302.782	302.781	302.781	7253.93	1.90342	34.4835
1202.73	283.949	3781.62	3672.34	309.811	301.953	301.952	301.952	3680.2	-0.368768	-5.07081
1202.93	283.749	2527.62	1760.41	304.425	301.42	301.42	301.42	1763.41	-3.39892	-38.2104
1203.13	283.549	1442.15	866.51	302.239	301.162	301.162	301.162	867.587	-3.38312	-28.7282
1203.33	283.349	949.28	497.634	301.361	301.001	301.001	301.001	497.994	-3.27522	-22.5643
1203.53	283.149	849.388	362.336	300.997	300.884	300.884	300.884	362.45	-3.73599	-24.3469
1203.73	282.949	689.4	318.11	300.83	300.796	300.796	300.796	318.143	-3.16172	-18.5628
1203.93	282.749	421.362	305.151	300.769	300.759	300.759	300.759	305.16	-1.26582	-5.81012
1204.13	282.549	398.536	301.735	300.737	300.734	300.734	300.734	301.738	-1.08422	-4.83991
1204.33	282.349	303.272	300.913	300.708	300.708	300.708	300.708	300.913	-0.0302861	-0.117935
1204.53	282.149	302.148	300.739	300.701	300.701	300.701	300.701	300.739	-0.0181288	-0.0704633
1204.73	281.949	185.32	300.692	300.686	300.686	300.686	300.686	300.692	1.89506	5.76859
1204.93	281.749	425.488	300.665	300.664	300.664	300.664	300.664	300.665	-1.35312	-6.24116
1205.13	281.549	439.396	300.647	300.647	300.647	300.647	300.647	300.647	-1.48009	-6.93746
1205.33	281.349	248.986	248.986	248.986	248.986	248.986	248.986	248.986	0	0
1205.53	281.149	322.088	322.088	322.088	322.088	322.088	322.088	322.088	0	0
1205.73	280.949	185.463	185.463	185.463	185.463	185.463	185.463	185.463	0	0
1205.93	280.749	340.816	340.816	340.816	340.816	340.816	340.816	340.816	0	0
1206.13	280.549	393.422	393.422	393.422	393.422	393.422	393.422	393.422	0	0
1206.33	280.349	208.102	208.102	208.102	208.102	208.102	208.102	208.102	0	0
1206.53	280.149	372.718	372.718	372.718	372.718	372.718	372.718	372.718	0	0
1206.73	279.949	193.568	193.568	193.568	193.568	193.568	193.568	193.568	0	0
1206.93	279.749	213.378	213.378	213.378	213.378	213.378	213.378	213.378	0	0
1207.13	279.549	177.791	177.791	177.791	177.791	177.791	177.791	177.791	0	0
1207.33	279.349	115.394	115.394	115.394	115.394	115.394	115.394	115.394	0	0
1207.53	279.149	146.882	146.882	146.882	146.882	146.882	146.882	146.882	0	0
1207.73	278.949	249.146	249.146	249.146	249.146	249.146	249.146	249.146	0	0
1207.93	278.749	205.89	205.89	205.89	205.89	205.89	205.89	205.89	0	0

File: 241019_C-2.3.csv
C1s Scan
	Characteristic Energy eV	1486.68	Acquisition Time s	0.05
KE_C1s Scan	BE_C1s Scan	CPS_C1s Scan	C-C/C-H_1_C1s Scan	C-O_2_C1s Scan	C=O_3_C1s Scan	O-C=O_4_C1s Scan	Background_C1s Scan	Envelope_C1s Scan	Normalised_Residual_C1s Scan	Residual_C1s Scan
1189.23	297.453	1592.26	1592.26	1592.26	1592.26	1592.26	1592.26	1592.26	0	0
1189.43	297.253	1783.54	1783.54	1783.54	1783.54	1783.54	1783.54	1783.54	0	0
1189.63	297.053	1799.65	1799.65	1799.65	1799.65	1799.65	1799.65	1799.65	0	0
1189.83	296.853	1800.32	1800.32	1800.32	1800.32	1800.32	1800.32	1800.32	0	0
1190.03	296.653	1679.2	1679.2	1679.2	1679.2	1679.2	1679.2	1679.2	0	0
1190.23	296.453	1781.48	1781.48	1781.48	1781.48	1781.48	1781.48	1781.48	0	0
1190.43	296.253	1552.53	1552.53	1552.53	1552.53	1552.53	1552.53	1552.53	0	0
1190.63	296.053	1567.95	1567.95	1567.95	1567.95	1567.95	1567.95	1567.95	0	0
1190.83	295.853	1714.9	1714.9	1714.9	1714.9	1714.9	1714.9	1714.9	0	0
1191.03	295.653	1277.51	1277.51	1277.51	1277.51	1277.51	1277.51	1277.51	0	0
1191.23	295.453	1605.55	1605.55	1605.55	1605.55	1605.55	1605.55	1605.55	0	0
1191.43	295.253	1607.57	1607.57	1607.57	1607.57	1607.57	1607.57	1607.57	0	0
1191.63	295.053	1760.12	1760.12	1760.12	1760.12	1760.12	1760.12	1760.12	0	0
1191.83	294.853	1371.2	1371.2	1371.2	1371.2	1371.2	1371.2	1371.2	0	0
1192.03	294.653	1353.02	1353.02	1353.02	1353.02	1353.02	1353.02	1353.02	0	0
1192.23	294.453	1463.41	1463.41	1463.41	1463.41	1463.41	1463.41	1463.41	0	0
1192.43	294.253	1663.68	1663.68	1663.68	1663.68	1663.68	1663.68	1663.68	0	0
1192.63	294.053	1166.89	1166.89	1166.89	1166.89	1166.89	1166.89	1166.89	0	0
1192.83	293.853	1155.24	1155.24	1155.24	1155.24	1155.24	1155.24	1155.24	0	0
1193.03	293.653	1541.4	1541.4	1541.4	1541.4	1541.4	1541.4	1541.4	0	0
1193.23	293.453	1195.06	1195.06	1195.06	1195.06	1195.06	1195.06	1195.06	0	0
1193.43	293.253	1085.46	1085.46	1085.46	1085.46	1085.46	1085.46	1085.46	0	0
1193.63	293.053	1287.91	1287.91	1287.91	1287.91	1287.91	1287.91	1287.91	0	0
1193.83	292.853	1148.47	1148.47	1148.47	1148.47	1148.47	1148.47	1148.47	0	0
1194.03	292.653	1052.96	1052.96	1052.96	1052.96	1052.96	1052.96	1052.96	0	0
1194.23	292.453	1234.56	1234.56	1234.56	1234.56	1234.56	1234.56	1234.56	0	0
1194.43	292.253	1070.13	1070.13	1070.13	1070.13	1070.13	1070.13	1070.13	0	0
1194.63	292.053	1182.94	1182.94	1182.94	1182.94	1182.96	1182.94	1182.96	0	0
1194.83	291.853	1074.68	1074.68	1074.68	1074.68	1074.75	1074.68	1074.75	0	0
1195.03	291.653	1004.91	1004.91	1004.91	1004.91	1005.14	1004.91	1005.14	0	0
1195.23	291.453	1225.97	1225.97	1225.97	1225.97	1226.71	1225.97	1226.71	0	0
1195.43	291.253	772.748	772.748	772.748	772.748	774.922	772.748	774.922	0	0
1195.63	291.053	1311.36	1173.76	1173.76	1173.76	1179.73	1173.76	1179.73	-0.812757	-6.58122
1195.83	290.853	1190.5	1173.68	1173.68	1173.68	1188.88	1173.68	1188.88	-0.0104836	-0.0808832
1196.03	290.653	1394.95	1173.53	1173.53	1173.55	1209.41	1173.53	1209.42	-1.11077	-9.27664
1196.23	290.453	935.162	1173.42	1173.42	1173.47	1252.11	1173.42	1252.16	2.31792	15.8499
1196.43	290.253	1367.76	1173.3	1173.3	1173.47	1332.92	1173.3	1333.08	-0.209678	-1.73398
1196.63	290.053	1524.47	1173.06	1173.06	1173.56	1471.49	1173.06	1471.98	-0.300604	-2.62445
1196.83	289.853	1499.41	1172.8	1172.8	1174.17	1684.75	1172.8	1686.13	1.07828	9.33635
1197.03	289.653	2203.74	1172.03	1172.04	1175.58	1972.56	1172.03	1976.13	-1.08417	-11.3805
1197.23	289.453	2188.06	1171.4	1171.44	1179.92	2300.56	1171.4	2309.12	0.578721	6.05318
1197.43	289.253	2735.44	1170.04	1170.19	1189.02	2590.95	1170.04	2610.08	-0.535946	-6.26786
1197.63	289.053	2881.22	1168.58	1169.07	1207.66	2748.61	1168.58	2788.18	-0.3876	-4.65219
1197.83	288.853	3102.28	1166.93	1168.42	1241.17	2710.57	1166.93	2786.29	-1.26859	-15.7996
1198.03	288.653	2288.96	1165.87	1170.06	1295.45	2492.16	1165.87	2625.92	1.57489	16.8482
1198.23	288.453	2425.56	1164.76	1175.69	1371.29	2175.01	1164.75	2392.49	-0.150123	-1.65325
1198.43	288.253	2280.82	1163.83	1190.27	1461.27	1853.12	1163.79	2177.12	-0.485553	-5.18522
1198.63	288.053	1888.47	1163.18	1222.58	1546.17	1588.77	1163.03	2031.61	0.736521	7.15691
1198.83	287.853	1929.09	1162.9	1286.36	1599.11	1402.77	1162.3	1964.26	0.179018	1.75816
1199.03	287.653	1681.89	1163.78	1400.11	1599.19	1286.5	1161.61	1964.76	1.54234	14.1437
1199.23	287.453	1825.84	1168.14	1582.44	1546.36	1220.84	1160.97	2034.86	1.09384	10.4513
1199.43	287.253	2559.66	1181.86	1840.61	1460.32	1186.52	1159.98	2189.37	-1.63657	-18.5145
1199.63	287.053	2582.88	1220.43	2153.96	1367.91	1169.67	1158.73	2435.79	-0.647165	-7.35448
1199.83	286.853	2703.82	1318.37	2460.54	1289.19	1161.7	1157.51	2757.26	0.229813	2.67207
1200.03	286.653	3391.02	1543.29	2667.74	1231.42	1157.26	1155.77	3132.39	-0.993104	-12.9314
1200.23	286.453	3379.9	2015.6	2697.37	1193.7	1154.28	1153.8	3599.57	0.844902	10.9836
1200.43	286.253	4216.68	2917.02	2535.21	1170.78	1151.51	1151.36	4320.43	0.357274	5.18767
1200.63	286.053	5235.86	4468.9	2244.58	1156.73	1148.03	1147.98	5574.29	1.04582	16.9214
1200.83	285.853	8198.34	6843.81	1917.8	1145.89	1142.24	1142.23	7623.05	-1.42073	-28.7646
1201.03	285.653	10380.4	9996.54	1629.59	1136.23	1134.82	1134.81	10492.7	0.246639	5.61893
1201.23	285.453	14201.5	13454	1412.05	1124.78	1124.27	1124.27	13742.3	-0.86164	-22.9603
1201.43	285.253	16680.6	16284.3	1264.88	1111.38	1111.21	1111.21	16438.2	-0.41973	-12.1216
1201.63	285.053	17525.1	17451.4	1172.82	1097.22	1097.17	1097.17	17527.2	0.00339714	0.100561
1201.83	284.853	16979.5	16459.9	1117.61	1083.2	1083.18	1083.18	16494.3	-0.832575	-24.2589
1202.03	284.653	13556.8	13727.2	1086.34	1071.8	1071.79	1071.79	13741.8	0.355201	9.24778
1202.23	284.453	10417	10266.6	1068.35	1062.65	1062.64	1062.64	10272.3	-0.317061	-7.23603
1202.43	284.253	7101.96	7042.01	1058.55	1056.47	1056.47	1056.47	7044.08	-0.153569	-2.89386
1202.63	284.053	4835.02	4572.15	1053.6	1052.9	1052.9	1052.9	4572.85	-0.843092	-13.1087
1202.83	283.853	2969.54	2937.92	1051.29	1051.07	1051.07	1051.07	2938.14	-0.128856	-1.57013
1203.03	283.653	2111.8	1977.81	1049.9	1049.84	1049.84	1049.84	1977.88	-0.651658	-6.69624
1203.23	283.453	1978.89	1469.28	1049.1	1049.08	1049.08	1049.08	1469.29	-2.56153	-25.4798
1203.43	283.253	1561.88	1224.22	1048.51	1048.51	1048.51	1048.51	1224.22	-1.91048	-16.883
1203.63	283.053	1245.71	1116.26	1048.3	1048.3	1048.3	1048.3	1116.26	-0.820159	-6.4728
1203.83	282.853	1338.3	1072.32	1048.02	1048.02	1048.02	1048.02	1072.32	-1.62575	-13.2989
1204.03	282.653	999.496	1055.85	1047.82	1047.82	1047.82	1047.82	1055.85	0.398615	2.81792
1204.23	282.453	1303.8	1050.09	1047.64	1047.64	1047.64	1047.64	1050.09	-1.57112	-12.6853
1204.43	282.253	866.292	1048.18	1047.49	1047.49	1047.49	1047.49	1048.18	1.38186	9.09455
1204.63	282.053	994.924	1047.57	1047.39	1047.39	1047.39	1047.39	1047.57	0.373221	2.63236
1204.83	281.853	1197.72	1047.32	1047.28	1047.28	1047.28	1047.28	1047.32	-0.971767	-7.52014
1205.03	281.653	782.868	1047.13	1047.12	1047.12	1047.12	1047.12	1047.13	2.11187	13.2129
1205.23	281.453	606.94	1046.87	1046.86	1046.86	1046.86	1046.86	1046.87	3.99294	21.9963
1205.43	281.253	1206.6	1046.77	1046.77	1046.77	1046.77	1046.77	1046.77	-1.02891	-7.99179
1205.63	281.053	973.42	1046.66	1046.66	1046.66	1046.66	1046.66	1046.66	0.524913	3.66204
1205.83	280.853	1225.2	1225.2	1225.2	1225.2	1225.2	1225.2	1225.2	0	0
1206.03	280.653	872.334	872.334	872.334	872.334	872.334	872.334	872.334	0	0
1206.23	280.453	990.17	990.17	990.17	990.17	990.17	990.17	990.17	0	0
1206.43	280.253	1101.2	1101.2	1101.2	1101.2	1101.2	1101.2	1101.2	0	0
1206.63	280.053	998.422	998.422	998.422	998.422	998.422	998.422	998.422	0	0
1206.83	279.853	1137.82	1137.82	1137.82	1137.82	1137.82	1137.82	1137.82	0	0
1207.03	279.653	811.946	811.946	811.946	811.946	811.946	811.946	811.946	0	0
1207.23	279.453	745.984	745.984	745.984	745.984	745.984	745.984	745.984	0	0
1207.43	279.253	1058.71	1058.71	1058.71	1058.71	1058.71	1058.71	1058.71	0	0
1207.63	279.053	1113.07	1113.07	1113.07	1113.07	1113.07	1113.07	1113.07	0	0
1207.83	278.853	904.7	904.7	904.7	904.7	904.7	904.7	904.7	0	0
1208.03	278.653	913.712	913.712	913.712	913.712	913.712	913.712	913.712	0	0
1208.23	278.453	1045.02	1045.02	1045.02	1045.02	1045.02	1045.02	1045.02	0	0