Folder: stickleback_plastic_degradation/XPS/XPS (part 2)

File: 241019_195-1.1.csv
C1s Scan
	Characteristic Energy eV	1486.68	Acquisition Time s	0.05
KE_C1s Scan	BE_C1s Scan	CPS_C1s Scan	C-C/C-H_1_C1s Scan	C-O_2_C1s Scan	C=O_3_C1s Scan	O-C=O_4_C1s Scan	Background_C1s Scan	Envelope_C1s Scan	Normalised_Residual_C1s Scan	Residual_C1s Scan
1189.03	297.647	1978.32	1978.32	1978.32	1978.32	1978.32	1978.32	1978.32	0	0
1189.23	297.447	1949.89	1949.89	1949.89	1949.89	1949.89	1949.89	1949.89	0	0
1189.43	297.247	1826.49	1826.49	1826.49	1826.49	1826.49	1826.49	1826.49	0	0
1189.63	297.047	1543.05	1543.05	1543.05	1543.05	1543.05	1543.05	1543.05	0	0
1189.83	296.847	1713.36	1713.36	1713.36	1713.36	1713.36	1713.36	1713.36	0	0
1190.03	296.647	1723.13	1723.13	1723.13	1723.13	1723.13	1723.13	1723.13	0	0
1190.23	296.447	1593.83	1593.83	1593.83	1593.83	1593.83	1593.83	1593.83	0	0
1190.43	296.247	1612.65	1612.65	1612.65	1612.65	1612.65	1612.65	1612.65	0	0
1190.63	296.047	1599.65	1599.65	1599.65	1599.65	1599.65	1599.65	1599.65	0	0
1190.83	295.847	1645.33	1645.33	1645.33	1645.33	1645.33	1645.33	1645.33	0	0
1191.03	295.647	1469.78	1469.78	1469.78	1469.78	1469.78	1469.78	1469.78	0	0
1191.23	295.447	1306.09	1306.09	1306.09	1306.09	1306.09	1306.09	1306.09	0	0
1191.43	295.247	1545.38	1545.38	1545.38	1545.38	1545.38	1545.38	1545.38	0	0
1191.63	295.047	1444.76	1444.76	1444.76	1444.76	1444.76	1444.76	1444.76	0	0
1191.83	294.847	1025.59	1025.59	1025.59	1025.59	1025.59	1025.59	1025.59	0	0
1192.03	294.647	1201	1201	1201	1201	1201	1201	1201	0	0
1192.23	294.447	1330.8	1330.8	1330.8	1330.8	1330.8	1330.8	1330.8	0	0
1192.43	294.247	1039.59	1039.59	1039.59	1039.59	1039.59	1039.59	1039.59	0	0
1192.63	294.047	1313.86	1313.86	1313.86	1313.86	1313.86	1313.86	1313.86	0	0
1192.83	293.847	867.97	867.97	867.97	867.97	867.97	867.97	867.97	0	0
1193.03	293.647	1013.01	1013.01	1013.01	1013.01	1013.01	1013.01	1013.01	0	0
1193.23	293.447	777.704	777.704	777.704	777.704	777.704	777.704	777.704	0	0
1193.43	293.247	805.99	805.99	805.99	805.99	805.99	805.99	805.99	0	0
1193.63	293.047	1007.69	1007.69	1007.69	1007.69	1007.69	1007.69	1007.69	0	0
1193.83	292.847	693.016	693.016	693.016	693.016	693.017	693.016	693.017	0	0
1194.03	292.647	879.492	879.492	879.492	879.492	879.496	879.492	879.496	0	0
1194.23	292.447	738.916	738.916	738.916	738.916	738.929	738.916	738.929	0	0
1194.43	292.247	765.568	765.568	765.568	765.569	765.61	765.568	765.61	0	0
1194.63	292.047	557.298	557.298	557.298	557.3	557.426	557.298	557.429	0	0
1194.83	291.847	705.474	705.474	705.474	705.482	705.845	705.474	705.853	0	0
1195.03	291.647	753.672	753.672	753.672	753.701	754.678	753.672	754.708	0	0
1195.23	291.447	607.994	607.994	607.994	608.093	610.554	607.994	610.653	0	0
1195.43	291.247	548.338	548.338	548.338	548.651	554.485	548.338	554.798	0	0
1195.63	291.047	816.864	670.797	670.797	671.727	684.655	670.797	685.585	-1.02708	-6.56396
1195.83	290.847	887.018	670.742	670.742	673.341	700.049	670.742	702.649	-1.38423	-9.21847
1196.03	290.647	658.424	670.723	670.723	677.575	728.845	670.723	735.698	0.673385	3.86368
1196.23	290.447	599	670.696	670.697	687.636	778.902	670.696	795.842	1.79841	9.84211
1196.43	290.247	888.424	670.65	670.654	709.957	858.675	670.65	897.986	0.0717313	0.478084
1196.63	290.047	958.942	670.564	670.579	756.351	974.318	670.564	1060.12	0.730592	5.0589
1196.83	289.847	1388.47	670.364	670.419	846.416	1124.14	670.364	1300.24	-0.529413	-4.41111
1197.03	289.647	1737.98	670.003	670.188	1008.35	1292.33	670.003	1630.86	-0.574588	-5.35629
1197.23	289.447	2070.16	669.619	670.213	1277.6	1446.18	669.619	2054.75	-0.0757176	-0.770343
1197.43	289.247	3201.02	668.921	670.703	1688.13	1544.1	668.921	2565.09	-2.51333	-31.7964
1197.63	289.047	3020.38	668.194	673.239	2253.37	1554.57	668.194	3144.79	0.5062	6.22068
1197.83	288.847	4026.42	667.282	680.716	2938.06	1472.91	667.282	3757.13	-0.94897	-13.4647
1198.03	288.647	4343.5	666.144	699.694	3639.45	1326.59	666.144	4333.44	-0.0341179	-0.50279
1198.23	288.447	4361.2	664.921	743.584	4193.16	1156.73	664.921	4763.63	1.36262	20.1216
1198.43	288.247	5566.5	663.479	837.259	4432.05	998.872	663.476	4941.23	-1.87397	-31.2635
1198.63	288.047	4780.58	662.134	1022.58	4276.41	873.397	662.117	4848.17	0.218597	3.37963
1198.83	287.847	4568.32	660.899	1361.3	3778.76	784.437	660.807	4602.97	0.114625	1.73237
1199.03	287.647	4770.02	659.971	1933.02	3092.4	726.998	659.53	4433.81	-1.08853	-16.8107
1199.23	287.447	4424.86	660.307	2821.2	2390.25	692.83	658.365	4589.5	0.55343	8.23185
1199.43	287.247	5583.82	664.644	4066.35	1790.84	673.504	656.958	5224.46	-1.07534	-17.9678
1199.63	287.047	6157.86	683.029	5612.17	1342.57	662.77	655.316	6334.59	0.503603	8.83667
1199.83	286.847	8358.28	743.473	7250.45	1041.39	656.196	653.046	7732.37	-1.53086	-31.2953
1200.03	286.647	8937.94	917.269	8618.11	855.556	651.618	650.366	9091.46	0.363096	7.67582
1200.23	286.447	10074.8	1364.22	9318.9	748.995	647.936	647.467	10137.6	0.140003	3.14225
1200.43	286.247	11301.9	2381.03	9119.57	691.447	644.53	644.365	10903.5	-0.838077	-19.9226
1200.63	286.047	12159.6	4440.03	8086.64	661.448	640.921	640.867	11906.4	-0.513366	-12.6582
1200.83	285.847	14935.7	8092.3	6544.84	645.093	636.658	636.641	14009	-1.69555	-46.3347
1201.03	285.647	17239.3	13626.8	4902.84	634.887	631.635	631.63	17901.2	1.12725	33.0954
1201.23	285.447	24183.6	20499.6	3460.47	625.937	624.762	624.761	23336.5	-1.21807	-42.3561
1201.43	285.247	29031.8	26834.6	2357.52	616.735	616.333	616.333	28576.2	-0.597902	-22.7799
1201.63	285.047	29914.8	30001.1	1603.16	607.17	607.041	607.041	30997.4	1.39959	54.1288
1201.83	284.847	30289.4	28376.3	1129.81	597.554	597.515	597.515	28908.6	-1.77405	-69.0394
1202.03	284.647	22813.8	22823.4	856.126	589.888	589.877	589.877	23089.6	0.408361	13.792
1202.23	284.447	15165	15847	709.427	584.516	584.513	584.513	15971.9	1.46519	40.3461
1202.43	284.247	9714.96	9720.96	636.311	581.104	581.103	581.103	9776.17	0.138861	3.06046
1202.63	284.047	5737.38	5420.23	602.214	579.308	579.308	579.308	5443.14	-0.868623	-14.712
1202.83	283.847	3475.22	2875.51	587.109	578.192	578.192	578.192	2884.43	-2.24092	-29.5395
1203.03	283.647	2425.46	1557.69	580.732	577.469	577.469	577.469	1560.96	-3.92514	-43.2252
1203.23	283.447	1595.59	955.558	578.254	577.128	577.128	577.128	956.685	-3.57652	-31.9453
1203.43	283.247	1401.64	709.318	577.243	576.878	576.878	576.878	709.683	-4.1328	-34.5977
1203.63	283.047	1010.75	618.567	576.828	576.718	576.718	576.718	618.678	-2.75759	-19.6036
1203.83	282.847	871.658	588.68	576.645	576.613	576.613	576.613	588.712	-2.14297	-14.1473
1204.03	282.647	944.016	579.68	576.547	576.539	576.539	576.539	579.688	-2.65147	-18.2164
1204.23	282.447	693.082	577.258	576.52	576.518	576.518	576.518	577.26	-0.983748	-5.7911
1204.43	282.247	656.674	576.645	576.487	576.487	576.487	576.487	576.646	-0.698318	-4.00141
1204.63	282.047	497.05	576.501	576.471	576.471	576.471	576.471	576.501	0.796868	3.97257
1204.83	281.847	491.92	491.925	491.92	491.92	491.92	491.92	491.925	0	0
1205.03	281.647	556.954	556.955	556.954	556.954	556.954	556.954	556.955	0	0
1205.23	281.447	522.224	522.224	522.224	522.224	522.224	522.224	522.224	0	0
1205.43	281.247	684.554	684.554	684.554	684.554	684.554	684.554	684.554	0	0
1205.63	281.047	389.978	389.978	389.978	389.978	389.978	389.978	389.978	0	0
1205.83	280.847	291.944	291.944	291.944	291.944	291.944	291.944	291.944	0	0
1206.03	280.647	618.406	618.406	618.406	618.406	618.406	618.406	618.406	0	0
1206.23	280.447	619.802	619.802	619.802	619.802	619.802	619.802	619.802	0	0
1206.43	280.247	340.588	340.588	340.588	340.588	340.588	340.588	340.588	0	0
1206.63	280.047	342.334	342.334	342.334	342.334	342.334	342.334	342.334	0	0
1206.83	279.847	327.714	327.714	327.714	327.714	327.714	327.714	327.714	0	0
1207.03	279.647	447.844	447.844	447.844	447.844	447.844	447.844	447.844	0	0
1207.23	279.447	419.5	419.5	419.5	419.5	419.5	419.5	419.5	0	0
1207.43	279.247	600.18	600.18	600.18	600.18	600.18	600.18	600.18	0	0
1207.63	279.047	309.818	309.818	309.818	309.818	309.818	309.818	309.818	0	0
1207.83	278.847	373.156	373.156	373.156	373.156	373.156	373.156	373.156	0	0
1208.03	278.647	333.458	333.458	333.458	333.458	333.458	333.458	333.458	0	0

File: 241019_195-1.2.csv
C1s Scan
	Characteristic Energy eV	1486.68	Acquisition Time s	0.05
KE_C1s Scan	BE_C1s Scan	CPS_C1s Scan	C-C/C-H_1_C1s Scan	C-O_2_C1s Scan	C=O_3_C1s Scan	O-C=O_4_C1s Scan	Background_C1s Scan	Envelope_C1s Scan	Normalised_Residual_C1s Scan	Residual_C1s Scan
1189.03	297.653	1827.6	1827.6	1827.6	1827.6	1827.6	1827.6	1827.6	0	0
1189.23	297.453	1597.72	1597.72	1597.72	1597.72	1597.72	1597.72	1597.72	0	0
1189.43	297.253	1991.38	1991.38	1991.38	1991.38	1991.38	1991.38	1991.38	0	0
1189.63	297.053	1649.54	1649.54	1649.54	1649.54	1649.54	1649.54	1649.54	0	0
1189.83	296.853	1712.94	1712.94	1712.94	1712.94	1712.94	1712.94	1712.94	0	0
1190.03	296.653	1569.96	1569.96	1569.96	1569.96	1569.96	1569.96	1569.96	0	0
1190.23	296.453	1977.96	1977.96	1977.96	1977.96	1977.96	1977.96	1977.96	0	0
1190.43	296.253	1601.12	1601.12	1601.12	1601.12	1601.12	1601.12	1601.12	0	0
1190.63	296.053	1634.77	1634.77	1634.77	1634.77	1634.77	1634.77	1634.77	0	0
1190.83	295.853	1573.69	1573.69	1573.69	1573.69	1573.69	1573.69	1573.69	0	0
1191.03	295.653	1374.86	1374.86	1374.86	1374.86	1374.86	1374.86	1374.86	0	0
1191.23	295.453	1431.69	1431.69	1431.69	1431.69	1431.69	1431.69	1431.69	0	0
1191.43	295.253	1119.2	1119.2	1119.2	1119.2	1119.2	1119.2	1119.2	0	0
1191.63	295.053	1346.78	1346.78	1346.78	1346.78	1346.78	1346.78	1346.78	0	0
1191.83	294.853	1273.72	1273.72	1273.72	1273.72	1273.72	1273.72	1273.72	0	0
1192.03	294.653	1293.58	1293.58	1293.58	1293.58	1293.58	1293.58	1293.58	0	0
1192.23	294.453	1282.16	1282.16	1282.16	1282.16	1282.16	1282.16	1282.16	0	0
1192.43	294.253	872.598	872.598	872.598	872.598	872.598	872.598	872.598	0	0
1192.63	294.053	1063.21	1063.21	1063.21	1063.21	1063.21	1063.21	1063.21	0	0
1192.83	293.853	807.64	807.64	807.64	807.64	807.64	807.64	807.64	0	0
1193.03	293.653	934.35	934.35	934.35	934.35	934.35	934.35	934.35	0	0
1193.23	293.453	1071.29	1071.29	1071.29	1071.29	1071.29	1071.29	1071.29	0	0
1193.43	293.253	970.476	970.476	970.476	970.476	970.476	970.476	970.476	0	0
1193.63	293.053	742.876	742.876	742.876	742.876	742.876	742.876	742.876	0	0
1193.83	292.853	908.32	908.32	908.32	908.32	908.321	908.32	908.321	0	0
1194.03	292.653	634.272	634.272	634.272	634.272	634.277	634.272	634.277	0	0
1194.23	292.453	809.51	809.51	809.51	809.51	809.528	809.51	809.528	0	0
1194.43	292.253	665.72	665.72	665.72	665.72	665.781	665.72	665.782	0	0
1194.63	292.053	846.538	846.538	846.538	846.539	846.73	846.538	846.732	0	0
1194.83	291.853	882.016	882.016	882.016	882.021	882.581	882.016	882.586	0	0
1195.03	291.653	631.568	631.568	631.568	631.588	633.128	631.568	633.148	0	0
1195.23	291.453	827.958	827.958	827.958	828.029	831.976	827.958	832.048	0	0
1195.43	291.253	727.578	727.578	727.578	727.815	737.312	727.578	737.549	0	0
1195.63	291.053	566.376	723.638	723.638	724.375	745.707	723.638	746.443	1.69187	9.00336
1195.83	290.853	780.402	723.615	723.615	725.75	770.374	723.615	772.509	-0.0631763	-0.394637
1196.03	290.653	802.16	723.581	723.581	729.422	816.503	723.581	822.345	0.159364	1.00927
1196.23	290.453	1088.99	723.508	723.509	738.423	895.45	723.508	910.367	-1.21036	-8.93127
1196.43	290.253	1021.82	723.426	723.432	759.111	1019.43	723.426	1055.12	0.232877	1.66456
1196.63	290.053	1209.93	723.302	723.325	803.448	1194.76	723.302	1274.93	0.417832	3.24988
1196.83	289.853	1768.22	723.038	723.121	891.084	1412.69	723.038	1580.82	-0.996531	-9.37009
1197.03	289.653	2001.5	722.604	722.893	1052.7	1641.66	722.604	1972.04	-0.147228	-1.47283
1197.23	289.453	2659.22	722.077	723.016	1326.27	1827.68	722.077	2432.81	-0.981755	-11.3205
1197.43	289.253	2714.2	721.358	724.215	1748.38	1913.22	721.358	2943.1	0.982457	11.4451
1197.63	289.053	3542.42	720.427	728.599	2335.4	1867.23	720.427	3490.38	-0.195506	-2.60193
1197.83	288.853	4032.66	719.34	741.144	3048.15	1706.89	719.34	4057.5	0.0874816	1.24222
1198.03	288.653	4608.84	718.049	772.834	3772.73	1483.4	718.049	4592.86	-0.0526211	-0.798805
1198.23	288.453	4868.34	716.684	845.363	4328.27	1255.42	716.684	4995.69	0.408117	6.36736
1198.43	288.253	4854.4	715.16	997.979	4539.84	1062.49	715.156	5170	1.01287	15.78
1198.63	288.053	5659.58	713.599	1296.72	4326.94	920.517	713.58	5117.03	-1.61262	-27.1275
1198.83	287.853	5301.32	712.082	1832.85	3769.51	826.338	711.988	5004.82	-0.910582	-14.825
1199.03	287.653	4683.52	711.035	2720.27	3042.58	769.52	710.59	5111.64	1.39881	21.4058
1199.23	287.453	5351.16	710.927	4051.74	2326.83	737.415	709.018	5699.86	1.06589	17.4349
1199.43	287.253	6800.62	714.44	5833.58	1736.28	719.808	707.039	6882.99	0.223344	4.11844
1199.63	287.053	8354	730.728	7904.08	1310.14	709.901	704.498	8541.36	0.458359	9.36782
1199.83	286.853	11010.3	785.404	9871.94	1032.23	703.353	701.217	10289.3	-1.53649	-36.0508
1200.03	286.653	11802.2	944.197	11203.4	866.027	698.287	697.496	11619.4	-0.376203	-9.13878
1200.23	286.453	11724.9	1348.94	11451.7	774.096	693.962	693.687	12187.6	0.955585	23.1371
1200.43	286.253	11574.8	2274.33	10533.2	725.753	690.023	689.934	12153.5	1.20271	28.9335
1200.63	286.053	12466.7	4148.1	8757.5	700.824	685.881	685.854	12234.8	-0.464597	-11.5995
1200.83	285.853	13620.6	7509.1	6664.37	687.408	681.549	681.541	13497.8	-0.235279	-6.13997
1201.03	285.653	16407.6	12697.6	4719.51	678.477	676.335	676.333	16742.9	0.58545	16.7686
1201.23	285.453	22303	19367.6	3183.47	670.139	669.399	669.399	21882.4	-0.629702	-21.0282
1201.43	285.253	26141.4	25952.6	2106.91	661.23	660.992	660.992	27398.8	1.73895	62.8692
1201.63	285.053	31532.2	29943.8	1425.14	650.859	650.787	650.787	30718.2	-1.02499	-40.6988
1201.83	284.853	30457.8	29450.4	1027.39	640.377	640.357	640.357	29837.5	-0.794805	-31.0166
1202.03	284.653	24321	24693.5	812.14	631.629	631.623	631.623	24874	0.79292	27.6506
1202.23	284.453	17188.7	17892.7	704.343	625.19	625.189	625.189	17971.8	1.33564	39.1557
1202.43	284.253	11779.9	11433.7	653.315	620.899	620.898	620.898	11466.1	-0.646335	-15.686
1202.63	284.053	5980.64	6609.74	631.086	618.636	618.636	618.636	6622.18	1.85498	32.0772
1202.83	283.853	4670.76	3593.77	621.668	617.179	617.179	617.179	3598.26	-3.50905	-53.6251
1203.03	283.653	2504.94	1947.92	617.942	616.434	616.434	616.434	1949.43	-2.48186	-27.7754
1203.23	283.453	1753.9	1157.3	616.513	616.034	616.034	616.034	1157.78	-3.18287	-29.8062
1203.43	283.253	1618.82	814.906	615.92	615.778	615.778	615.778	815.048	-4.46702	-40.1885
1203.63	283.053	1269.49	682.507	615.619	615.58	615.58	615.58	682.546	-3.68357	-29.3474
1203.83	282.853	834.752	635.807	615.472	615.462	615.462	615.462	635.817	-1.53963	-9.94673
1204.03	282.653	961.296	621.011	615.349	615.347	615.347	615.347	621.014	-2.45412	-17.0141
1204.23	282.453	878.606	616.721	615.299	615.299	615.299	615.299	616.721	-1.97559	-13.0942
1204.43	282.253	654.134	615.619	615.291	615.291	615.291	615.291	615.619	-0.336731	-1.92575
1204.63	282.053	643.586	615.343	615.276	615.276	615.276	615.276	615.343	-0.248935	-1.41213
1204.83	281.853	673.934	615.241	615.228	615.228	615.228	615.228	615.241	-0.505548	-2.93465
1205.03	281.653	484.126	615.191	615.189	615.189	615.189	615.189	615.191	1.33197	6.55327
1205.23	281.453	504.492	615.155	615.155	615.155	615.155	615.155	615.155	1.10169	5.53314
1205.43	281.253	650.444	615.123	615.123	615.123	615.123	615.123	615.123	-0.30968	-1.76605
1205.63	281.053	624.308	624.308	624.308	624.308	624.308	624.308	624.308	0	0
1205.83	280.853	474.29	474.29	474.29	474.29	474.29	474.29	474.29	0	0
1206.03	280.653	391.858	391.858	391.858	391.858	391.858	391.858	391.858	0	0
1206.23	280.453	506.746	506.746	506.746	506.746	506.746	506.746	506.746	0	0
1206.43	280.253	547.288	547.288	547.288	547.288	547.288	547.288	547.288	0	0
1206.63	280.053	548.388	548.388	548.388	548.388	548.388	548.388	548.388	0	0
1206.83	279.853	418.71	418.71	418.71	418.71	418.71	418.71	418.71	0	0
1207.03	279.653	457.848	457.848	457.848	457.848	457.848	457.848	457.848	0	0
1207.23	279.453	436.534	436.534	436.534	436.534	436.534	436.534	436.534	0	0
1207.43	279.253	354.64	354.64	354.64	354.64	354.64	354.64	354.64	0	0
1207.63	279.053	309.05	309.05	309.05	309.05	309.05	309.05	309.05	0	0
1207.83	278.853	392.218	392.218	392.218	392.218	392.218	392.218	392.218	0	0
1208.03	278.653	301.918	301.918	301.918	301.918	301.918	301.918	301.918	0	0

File: 241019_195-1.3.csv
C1s Scan
	Characteristic Energy eV	1486.68	Acquisition Time s	0.05
KE_C1s Scan	BE_C1s Scan	CPS_C1s Scan	C-C/C-H_1_C1s Scan	C-O_2_C1s Scan	C=O_3_C1s Scan	O-C=O_4_C1s Scan	Background_C1s Scan	Envelope_C1s Scan	Normalised_Residual_C1s Scan	Residual_C1s Scan
1189.01	297.666	1712.31	1712.31	1712.31	1712.31	1712.31	1712.31	1712.31	0	0
1189.21	297.466	1578.91	1578.91	1578.91	1578.91	1578.91	1578.91	1578.91	0	0
1189.41	297.266	1747.94	1747.94	1747.94	1747.94	1747.94	1747.94	1747.94	0	0
1189.61	297.066	1618.99	1618.99	1618.99	1618.99	1618.99	1618.99	1618.99	0	0
1189.81	296.866	1429.46	1429.46	1429.46	1429.46	1429.46	1429.46	1429.46	0	0
1190.01	296.666	1546.73	1546.73	1546.73	1546.73	1546.73	1546.73	1546.73	0	0
1190.21	296.466	1584.25	1584.25	1584.25	1584.25	1584.25	1584.25	1584.25	0	0
1190.41	296.266	1511.98	1511.98	1511.98	1511.98	1511.98	1511.98	1511.98	0	0
1190.61	296.066	1290.11	1290.11	1290.11	1290.11	1290.11	1290.11	1290.11	0	0
1190.81	295.866	1414.01	1414.01	1414.01	1414.01	1414.01	1414.01	1414.01	0	0
1191.01	295.666	1004.44	1004.44	1004.44	1004.44	1004.44	1004.44	1004.44	0	0
1191.21	295.466	1313.81	1313.81	1313.81	1313.81	1313.81	1313.81	1313.81	0	0
1191.41	295.266	1253.09	1253.09	1253.09	1253.09	1253.09	1253.09	1253.09	0	0
1191.61	295.066	1181.44	1181.44	1181.44	1181.44	1181.44	1181.44	1181.44	0	0
1191.81	294.866	1009.91	1009.91	1009.91	1009.91	1009.91	1009.91	1009.91	0	0
1192.01	294.666	941.126	941.126	941.126	941.126	941.126	941.126	941.126	0	0
1192.21	294.466	1181.31	1181.31	1181.31	1181.31	1181.31	1181.31	1181.31	0	0
1192.41	294.266	983.522	983.522	983.522	983.522	983.522	983.522	983.522	0	0
1192.61	294.066	832.568	832.568	832.568	832.568	832.568	832.568	832.568	0	0
1192.81	293.866	886.806	886.806	886.806	886.806	886.806	886.806	886.806	0	0
1193.01	293.666	720.232	720.232	720.232	720.232	720.232	720.232	720.232	0	0
1193.21	293.466	641.396	641.396	641.396	641.396	641.396	641.396	641.396	0	0
1193.41	293.266	988.236	988.236	988.236	988.236	988.236	988.236	988.236	0	0
1193.61	293.066	915.572	915.572	915.572	915.572	915.572	915.572	915.572	0	0
1193.81	292.866	824.722	824.722	824.722	824.722	824.722	824.722	824.722	0	0
1194.01	292.666	827.8	827.8	827.8	827.8	827.8	827.8	827.8	0	0
1194.21	292.466	684.956	684.956	684.956	684.956	684.958	684.956	684.958	0	0
1194.41	292.266	585.402	585.402	585.402	585.402	585.41	585.402	585.41	0	0
1194.61	292.066	744.716	744.716	744.716	744.716	744.749	744.716	744.749	0	0
1194.81	291.866	664.728	664.728	664.728	664.728	664.847	664.728	664.847	0	0
1195.01	291.666	497.28	497.28	497.28	497.281	497.678	497.28	497.679	0	0
1195.21	291.466	624.122	624.122	624.122	624.126	625.353	624.122	625.357	0	0
1195.41	291.266	706.906	706.906	706.906	706.922	710.43	706.906	710.447	0	0
1195.61	291.066	704.89	765.88	765.88	765.945	775.235	765.88	775.3	0.593007	3.52051
1195.81	290.866	716.508	765.713	765.713	765.954	788.669	765.713	788.91	0.604822	3.62012
1196.01	290.666	793.57	765.587	765.587	766.417	817.62	765.587	818.45	0.197489	1.244
1196.21	290.466	577.218	765.438	765.438	768.079	874.21	765.438	876.851	2.78872	14.9817
1196.41	290.266	626.536	765.351	765.352	773.145	974.44	765.351	982.234	3.17756	17.7849
1196.61	290.066	1021.76	765.203	765.205	786.47	1132.99	765.203	1154.25	0.926834	6.62463
1196.81	289.866	1279.12	764.779	764.788	818.439	1352.4	764.779	1406.07	0.793686	6.34731
1197.01	289.666	1782.92	763.684	763.723	888.81	1607.97	763.684	1733.14	-0.263647	-2.48929
1197.21	289.466	2000.38	762.39	762.548	1031.71	1840.58	762.39	2110.06	0.548326	5.48378
1197.41	289.266	2722.02	760.427	761.021	1294.21	1970.54	760.427	2504.91	-0.930507	-10.8555
1197.61	289.066	2710.24	758.573	760.636	1728.73	1945.16	758.573	2917.38	0.889693	10.3569
1197.81	288.866	3479.3	755.95	762.576	2362.55	1773.76	755.95	3386.98	-0.349966	-4.6159
1198.01	288.666	3817.8	752.995	772.683	3155.16	1522.73	752.995	3944.58	0.458814	6.33912
1198.21	288.466	4260.88	749.455	803.578	3954.88	1268.55	749.455	4528.1	0.915388	13.361
1198.41	288.266	4866.44	745.28	883.145	4518.26	1061.01	745.278	4971.86	0.337927	5.27124
1198.61	288.066	5216.46	740.557	1065.39	4626.48	915.367	740.546	5126.15	-0.27959	-4.51538
1198.81	287.866	5130.7	736.258	1442.66	4232.79	824.901	736.197	5028.02	-0.320526	-5.13377
1199.01	287.666	4666.26	732.256	2146.97	3496.3	773.377	731.957	4953.04	0.938748	14.339
1199.21	287.466	5244.92	728.949	3327.74	2667.98	745.488	727.614	5287.31	0.130884	2.11954
1199.41	287.266	6323.96	727.727	5078.78	1945.8	729.492	722.358	6314.73	-0.025965	-0.461708
1199.61	287.066	7837.72	735.072	7312.57	1415.39	718.004	715.37	8034.92	0.498081	9.86007
1199.81	286.866	10291.5	771.31	9636.44	1072.32	706.995	706.095	10068.8	-0.490846	-11.1344
1200.01	286.666	11252.6	891.755	11376.2	871.874	695.821	695.537	11749	1.04641	24.8206
1200.21	286.466	12589.2	1218.64	11867.2	761.859	683.61	683.527	12480.7	-0.216067	-5.42092
1200.41	286.266	12261.5	1990.09	10897.5	704.095	671.963	671.94	12247.8	-0.0275741	-0.682745
1200.61	286.066	12103.7	3601.2	8866.88	672.621	660.42	660.414	11819.9	-0.5769	-14.192
1200.81	285.866	12135.5	6531.39	6489.04	653.305	649.02	649.019	12375.7	0.487565	12.0101
1201.01	285.666	15195.7	11119.1	4363.59	636.232	634.84	634.84	14849.2	-0.628538	-17.3252
1201.21	285.466	18709.5	17053.3	2775.94	617.93	617.512	617.512	19212.2	0.821649	25.1306
1201.41	285.266	24150.6	22901.1	1736.84	595.195	595.079	595.079	24042.9	-0.154906	-5.38291
1201.61	285.066	26527.4	26350.4	1123.91	569.072	569.043	569.043	26905.3	0.51883	18.8954
1201.81	284.866	26520.8	25701.7	790.975	542.44	542.433	542.433	25950.2	-0.783467	-28.5298
1202.01	284.666	20480.2	21277.5	623.045	520.166	520.165	520.165	21380.4	1.4065	45.0084
1202.21	284.466	15267.6	15154.9	543.122	503.678	503.677	503.677	15194.4	-0.132497	-3.6608
1202.41	284.266	9340.1	9485.69	507.278	493.286	493.286	493.286	9499.68	0.369222	7.979
1202.61	284.066	5505.76	5364.3	492.005	487.413	487.413	487.413	5368.89	-0.412455	-6.84337
1202.81	283.866	2631.38	2846.42	486.051	484.657	484.657	484.657	2847.81	0.943432	10.8215
1203.01	283.666	2137.06	1511.09	483.323	482.932	482.932	482.932	1511.48	-3.02593	-31.2789
1203.21	283.466	1288.05	887.563	482.199	482.097	482.097	482.097	887.664	-2.4946	-20.0195
1203.41	283.266	950.66	625.832	481.461	481.437	481.437	481.437	625.856	-2.35556	-16.2402
1203.61	283.066	976.598	527.659	480.925	480.919	480.919	480.919	527.664	-3.21225	-22.4467
1203.81	282.866	823.158	494.3	480.589	480.587	480.587	480.587	494.302	-2.56301	-16.4428
1204.01	282.666	654.092	484.022	480.39	480.39	480.39	480.39	484.022	-1.48694	-8.50348
1204.21	282.466	584.27	481.148	480.269	480.269	480.269	480.269	481.148	-0.953957	-5.15609
1204.41	282.266	691.602	480.261	480.07	480.07	480.07	480.07	480.261	-1.79697	-10.567
1204.61	282.066	442.556	480.085	480.047	480.047	480.047	480.047	480.085	0.398903	1.87645
1204.81	281.866	462.274	480.019	480.012	480.012	480.012	480.012	480.019	0.184546	0.887238
1205.01	281.666	537.964	479.96	479.959	479.959	479.959	479.959	479.96	-0.559196	-2.90019
1205.21	281.466	488.744	488.744	488.744	488.744	488.744	488.744	488.744	0	0
1205.41	281.266	343.492	343.492	343.492	343.492	343.492	343.492	343.492	0	0
1205.61	281.066	423.966	423.966	423.966	423.966	423.966	423.966	423.966	0	0
1205.81	280.866	495.626	495.626	495.626	495.626	495.626	495.626	495.626	0	0
1206.01	280.666	511.306	511.306	511.306	511.306	511.306	511.306	511.306	0	0
1206.21	280.466	489.416	489.416	489.416	489.416	489.416	489.416	489.416	0	0
1206.41	280.266	392.322	392.322	392.322	392.322	392.322	392.322	392.322	0	0
1206.61	280.066	259.988	259.988	259.988	259.988	259.988	259.988	259.988	0	0
1206.81	279.866	406.368	406.368	406.368	406.368	406.368	406.368	406.368	0	0
1207.01	279.666	365.326	365.326	365.326	365.326	365.326	365.326	365.326	0	0
1207.21	279.466	395.84	395.84	395.84	395.84	395.84	395.84	395.84	0	0
1207.41	279.266	411.12	411.12	411.12	411.12	411.12	411.12	411.12	0	0
1207.61	279.066	391.586	391.586	391.586	391.586	391.586	391.586	391.586	0	0
1207.81	278.866	289.404	289.404	289.404	289.404	289.404	289.404	289.404	0	0
1208.01	278.666	396.142	396.142	396.142	396.142	396.142	396.142	396.142	0	0