Folder: stickleback_plastic_degradation/XPS/XPS (part 3)

File: 241019_195-2.1.csv
C1s Scan
	Characteristic Energy eV	1486.68	Acquisition Time s	0.05
KE_C1s Scan	BE_C1s Scan	CPS_C1s Scan	C-C/C-H_1_C1s Scan	C-O_2_C1s Scan	C=O_3_C1s Scan	O-C=O_4_C1s Scan	Background_C1s Scan	Envelope_C1s Scan	Normalised_Residual_C1s Scan	Residual_C1s Scan
1188.87	297.807	817.086	817.086	817.086	817.086	817.086	817.086	817.086	0	0
1189.07	297.607	901.37	901.37	901.37	901.37	901.37	901.37	901.37	0	0
1189.27	297.407	997.8	997.8	997.8	997.8	997.8	997.8	997.8	0	0
1189.47	297.207	866.624	866.624	866.624	866.624	866.624	866.624	866.624	0	0
1189.67	297.007	885.67	885.67	885.67	885.67	885.67	885.67	885.67	0	0
1189.87	296.807	809.386	809.386	809.386	809.386	809.386	809.386	809.386	0	0
1190.07	296.607	925.46	925.46	925.46	925.46	925.46	925.46	925.46	0	0
1190.27	296.407	786.886	786.886	786.886	786.886	786.886	786.886	786.886	0	0
1190.47	296.207	800.526	800.526	800.526	800.526	800.526	800.526	800.526	0	0
1190.67	296.007	592.014	592.014	592.014	592.014	592.014	592.014	592.014	0	0
1190.87	295.807	826.83	826.83	826.83	826.83	826.83	826.83	826.83	0	0
1191.07	295.607	858.582	858.582	858.582	858.582	858.582	858.582	858.582	0	0
1191.27	295.407	617.284	617.284	617.284	617.284	617.284	617.284	617.284	0	0
1191.47	295.207	766.374	766.374	766.374	766.374	766.374	766.374	766.374	0	0
1191.67	295.007	756.356	756.356	756.356	756.356	756.356	756.356	756.356	0	0
1191.87	294.807	565.24	565.24	565.24	565.24	565.24	565.24	565.24	0	0
1192.07	294.607	579.118	579.118	579.118	579.118	579.118	579.118	579.118	0	0
1192.27	294.407	438.34	438.34	438.34	438.34	438.34	438.34	438.34	0	0
1192.47	294.207	533.936	533.936	533.936	533.936	533.936	533.936	533.936	0	0
1192.67	294.007	591.086	591.086	591.086	591.086	591.086	591.086	591.086	0	0
1192.87	293.807	649.778	649.778	649.778	649.778	649.778	649.778	649.778	0	0
1193.07	293.607	572.254	572.254	572.254	572.254	572.254	572.254	572.254	0	0
1193.27	293.407	382.42	382.42	382.42	382.42	382.42	382.42	382.42	0	0
1193.47	293.207	541.262	541.262	541.262	541.262	541.262	541.262	541.262	0	0
1193.67	293.007	329.208	329.208	329.208	329.208	329.208	329.208	329.208	0	0
1193.87	292.807	394.854	394.854	394.854	394.854	394.856	394.854	394.856	0	0
1194.07	292.607	351.572	351.572	351.572	351.572	351.578	351.572	351.578	0	0
1194.27	292.407	252.414	252.414	252.414	252.414	252.435	252.414	252.436	0	0
1194.47	292.207	450.242	450.242	450.242	450.242	450.311	450.242	450.311	0	0
1194.67	292.007	259.414	259.414	259.414	259.415	259.621	259.414	259.622	0	0
1194.87	291.807	309.096	309.096	309.096	309.099	309.673	309.096	309.676	0	0
1195.07	291.607	230.908	230.908	230.908	230.921	232.41	230.908	232.423	0	0
1195.27	291.407	434.606	434.606	434.606	434.655	438.238	434.606	438.288	0	0
1195.47	291.207	318.052	318.052	318.052	318.219	326.26	318.052	326.427	0	0
1195.67	291.007	303.98	314.862	314.862	315.396	332.099	314.862	332.633	0.367481	1.43266
1195.87	290.807	488.068	314.821	314.821	316.398	348.418	314.821	349.994	-1.39751	-6.90368
1196.07	290.607	349.714	314.814	314.815	319.161	375.513	314.814	379.861	0.360467	1.50733
1196.27	290.407	569.898	314.785	314.786	325.969	415.668	314.785	426.853	-1.33986	-7.15223
1196.47	290.207	526.074	314.748	314.753	341.47	468.149	314.748	494.876	-0.304154	-1.55992
1196.67	290.007	698.378	314.687	314.705	374.434	525.957	314.687	585.721	-0.953226	-5.63283
1196.87	289.807	718.182	314.588	314.655	438.524	575.578	314.588	699.579	-0.155218	-0.93013
1197.07	289.607	871.084	314.468	314.702	553.221	600.907	314.468	839.893	-0.236308	-1.55953
1197.27	289.407	980.574	314.342	315.106	739.977	592.655	314.342	1019.05	0.274775	1.92399
1197.47	289.207	994.212	314.185	316.502	1011.71	553.706	314.185	1253.54	1.83909	12.9666
1197.67	289.007	1512.12	313.947	320.539	1358.53	497.908	313.947	1549.09	0.212558	1.84823
1197.87	288.807	1925.67	313.621	331.02	1728.02	440.912	313.621	1872.71	-0.269859	-2.64797
1198.07	288.607	1864.72	313.237	356.154	2028.05	393.436	313.236	2151.17	1.48326	14.3222
1198.27	288.407	2241.38	312.794	411.374	2158.25	359.128	312.791	2303.17	0.291838	3.08947
1198.47	288.207	2400.72	312.342	522.757	2070.29	337.071	312.331	2305.47	-0.434711	-4.76273
1198.67	288.007	2080.2	311.999	730.419	1796.01	324.188	311.94	2226.79	0.718702	7.3297
1198.87	287.807	2269.9	311.807	1081.18	1431.49	317.167	311.541	2207.02	-0.295111	-3.14393
1199.07	287.607	2390.68	312.186	1617.56	1073.81	313.504	311.089	2383.79	-0.0315055	-0.344455
1199.27	287.407	3004.28	314.687	2341.94	784.191	311.528	310.565	2820.65	-0.749129	-9.18147
1199.47	287.207	3800.14	323.98	3178.09	579.836	310.262	309.903	3462.46	-1.22488	-16.8841
1199.67	287.007	4057.88	353.282	3949.12	451.548	309.261	309.137	4135.8	0.273531	3.89619
1199.87	286.807	4768.46	433.97	4423.13	377.839	308.252	308.212	4618.55	-0.485417	-7.4953
1200.07	286.607	4915.84	634.519	4424.63	338.847	307.215	307.202	4783.6	-0.421739	-6.61191
1200.27	286.407	4819	1082.3	3953.63	319.698	306.281	306.278	4743.08	-0.244556	-3.79613
1200.47	286.207	5218.78	1973.89	3182.79	310.564	305.281	305.28	4856.69	-1.12078	-18.1047
1200.67	286.007	5681.8	3555.6	2344.5	306.161	304.213	304.213	5597.83	-0.249082	-4.19827
1200.87	285.807	7760.7	5978.91	1616.18	303.44	302.772	302.772	7292.98	-1.18719	-23.386
1201.07	285.607	10108.5	9091.08	1075.44	301.021	300.808	300.808	9865.93	-0.539407	-12.1267
1201.27	285.407	12078.5	12196.8	719.751	298.346	298.282	298.282	12618.3	1.0984	26.9931
1201.47	285.207	13724.1	14177.7	507.421	295.384	295.367	295.367	14389.7	1.27059	33.2837
1201.67	285.007	14638.1	14107.1	391.788	292.325	292.321	292.321	14206.6	-0.797609	-21.5783
1201.87	284.807	12283.3	12033.7	332.829	289.515	289.514	289.514	12077	-0.416218	-10.3149
1202.07	284.607	8509.52	8894.66	305.022	287.432	287.432	287.432	8912.25	0.976219	20.1365
1202.27	284.407	5671.62	5805.56	292.776	286.111	286.111	286.111	5812.22	0.417473	7.0302
1202.47	284.207	3222.32	3424.51	287.703	285.361	285.361	285.361	3426.85	0.805671	10.2265
1202.67	284.007	2143.62	1889.39	285.67	284.897	284.897	284.897	1890.17	-1.22408	-12.6727
1202.87	283.807	1234.97	1025.76	284.896	284.659	284.659	284.659	1026	-1.32971	-10.4489
1203.07	283.607	907.926	595.372	284.577	284.509	284.509	284.509	595.439	-2.31895	-15.6243
1203.27	283.407	665.862	403.446	284.433	284.415	284.415	284.415	403.464	-2.2738	-13.1199
1203.47	283.207	642.94	325.745	284.329	284.324	284.324	284.324	325.749	-2.79718	-15.8595
1203.67	283.007	462.752	297.472	284.263	284.262	284.262	284.262	297.473	-1.71803	-8.26397
1203.87	282.807	517.618	288.048	284.212	284.212	284.212	284.212	288.048	-2.25629	-11.4785
1204.07	282.607	423.466	285.199	284.186	284.186	284.186	284.186	285.199	-1.50242	-6.91333
1204.27	282.407	402.436	284.41	284.164	284.164	284.164	284.164	284.41	-1.31557	-5.9013
1204.47	282.207	404.892	284.201	284.147	284.147	284.147	284.147	284.201	-1.34119	-6.03456
1204.67	282.007	264.258	284.142	284.131	284.131	284.131	284.131	284.142	0.273511	0.994199
1204.87	281.807	374.124	284.121	284.119	284.119	284.119	284.119	284.121	-1.04048	-4.50013
1205.07	281.607	255.388	255.388	255.388	255.388	255.388	255.388	255.388	0	0
1205.27	281.407	208.956	208.956	208.956	208.956	208.956	208.956	208.956	0	0
1205.47	281.207	188.592	188.592	188.592	188.592	188.592	188.592	188.592	0	0
1205.67	281.007	249.076	249.076	249.076	249.076	249.076	249.076	249.076	0	0
1205.87	280.807	344.868	344.868	344.868	344.868	344.868	344.868	344.868	0	0
1206.07	280.607	367.582	367.582	367.582	367.582	367.582	367.582	367.582	0	0
1206.27	280.407	178.528	178.528	178.528	178.528	178.528	178.528	178.528	0	0
1206.47	280.207	216.916	216.916	216.916	216.916	216.916	216.916	216.916	0	0
1206.67	280.007	382.434	382.434	382.434	382.434	382.434	382.434	382.434	0	0
1206.87	279.807	277.908	277.908	277.908	277.908	277.908	277.908	277.908	0	0
1207.07	279.607	199.903	199.903	199.903	199.903	199.903	199.903	199.903	0	0
1207.27	279.407	222.338	222.338	222.338	222.338	222.338	222.338	222.338	0	0
1207.47	279.207	184.61	184.61	184.61	184.61	184.61	184.61	184.61	0	0
1207.67	279.007	232.7	232.7	232.7	232.7	232.7	232.7	232.7	0	0
1207.87	278.807	184.77	184.77	184.77	184.77	184.77	184.77	184.77	0	0

File: 241019_195-2.2.csv
C1s Scan
	Characteristic Energy eV	1486.68	Acquisition Time s	0.05
KE_C1s Scan	BE_C1s Scan	CPS_C1s Scan	C-C/C-H_1_C1s Scan	C-O_2_C1s Scan	C=O_3_C1s Scan	O-C=O_4_C1s Scan	Background_C1s Scan	Envelope_C1s Scan	Normalised_Residual_C1s Scan	Residual_C1s Scan
1189.06	297.619	365.004	365.004	365.004	365.004	365.004	365.004	365.004	0	0
1189.26	297.419	334.614	334.614	334.614	334.614	334.614	334.614	334.614	0	0
1189.46	297.219	464.614	464.614	464.614	464.614	464.614	464.614	464.614	0	0
1189.66	297.019	436.402	436.402	436.402	436.402	436.402	436.402	436.402	0	0
1189.86	296.819	265.038	265.038	265.038	265.038	265.038	265.038	265.038	0	0
1190.06	296.619	348.67	348.67	348.67	348.67	348.67	348.67	348.67	0	0
1190.26	296.419	270.864	270.864	270.864	270.864	270.864	270.864	270.864	0	0
1190.46	296.219	217.224	217.224	217.224	217.224	217.224	217.224	217.224	0	0
1190.66	296.019	321.838	321.838	321.838	321.838	321.838	321.838	321.838	0	0
1190.86	295.819	292.954	292.954	292.954	292.954	292.954	292.954	292.954	0	0
1191.06	295.619	351.222	351.222	351.222	351.222	351.222	351.222	351.222	0	0
1191.26	295.419	264.346	264.346	264.346	264.346	264.346	264.346	264.346	0	0
1191.46	295.219	198.245	198.245	198.245	198.245	198.245	198.245	198.245	0	0
1191.66	295.019	281.256	281.256	281.256	281.256	281.256	281.256	281.256	0	0
1191.86	294.819	239.866	239.866	239.866	239.866	239.866	239.866	239.866	0	0
1192.06	294.619	206.282	206.282	206.282	206.282	206.282	206.282	206.282	0	0
1192.26	294.419	278.536	278.536	278.536	278.536	278.536	278.536	278.536	0	0
1192.46	294.219	194.633	194.633	194.633	194.633	194.633	194.633	194.633	0	0
1192.66	294.019	259.32	259.32	259.32	259.32	259.32	259.32	259.32	0	0
1192.86	293.819	207.92	207.92	207.92	207.92	207.92	207.92	207.92	0	0
1193.06	293.619	214.39	214.39	214.39	214.39	214.39	214.39	214.39	0	0
1193.26	293.419	206.858	206.858	206.858	206.858	206.858	206.858	206.858	0	0
1193.46	293.219	217.038	217.038	217.038	217.038	217.038	217.038	217.038	0	0
1193.66	293.019	147.203	147.203	147.203	147.203	147.203	147.203	147.203	0	0
1193.86	292.819	255.342	255.342	255.342	255.342	255.342	255.342	255.342	0	0
1194.06	292.619	215.358	215.358	215.358	215.358	215.358	215.358	215.358	0	0
1194.26	292.419	172.332	172.332	172.332	172.332	172.333	172.332	172.333	0	0
1194.46	292.219	76.193	76.193	76.193	76.193	76.1966	76.193	76.1966	0	0
1194.66	292.019	80.5916	80.5916	80.5916	80.5916	80.6034	80.5916	80.6035	0	0
1194.86	291.819	86.9054	86.9054	86.9054	86.9056	86.942	86.9054	86.9422	0	0
1195.06	291.619	208.656	208.656	208.656	208.657	208.762	208.656	208.763	0	0
1195.26	291.419	200.086	200.086	200.086	200.089	200.374	200.086	200.377	0	0
1195.46	291.219	140.496	140.496	140.496	140.507	141.229	140.496	141.24	0	0
1195.66	291.019	125.019	142.176	142.176	142.213	143.922	142.176	143.958	0.378758	0.946968
1195.86	290.819	150.358	142.145	142.145	142.256	146.037	142.145	146.148	-0.0767683	-0.210489
1196.06	290.619	130.551	142.138	142.138	142.462	150.272	142.138	150.596	0.392285	1.00225
1196.26	290.419	135.732	142.131	142.131	143.005	157.979	142.131	158.854	0.443772	1.15608
1196.46	290.219	188.388	142.085	142.086	144.314	170.913	142.085	173.142	-0.248371	-0.762274
1196.66	290.019	76.2658	142.008	142.01	147.303	190.646	142.008	195.945	3.06435	5.98396
1196.86	289.819	270.5	141.876	141.886	153.681	217.623	141.876	229.44	-0.558244	-2.05302
1197.06	289.619	346.026	141.766	141.803	166.387	249.875	141.766	274.534	-0.859391	-3.57462
1197.26	289.419	269.832	141.611	141.733	189.505	281.722	141.611	329.738	0.815465	2.99528
1197.46	289.219	600.008	141.253	141.624	228.277	304.639	141.253	392.034	-1.89852	-10.3987
1197.66	289.019	481.736	140.89	141.96	287.448	311.286	140.89	458.914	-0.23251	-1.14112
1197.86	288.819	518.358	140.538	143.414	368.448	299.153	140.538	529.938	0.113734	0.579018
1198.06	288.619	548.02	140.134	147.369	464.771	272.284	140.133	604.157	0.536211	2.80685
1198.26	288.419	661.938	139.592	156.702	559.477	238.927	139.591	675.925	0.121563	0.699352
1198.46	288.219	755.616	139.009	176.766	627.492	206.978	139.005	733.23	-0.182098	-1.11928
1198.66	288.019	877.444	138.209	216.338	646.532	180.892	138.189	767.405	-0.830659	-5.50196
1198.86	287.819	739.832	137.624	288.453	609.532	162.335	137.542	785.32	0.373948	2.27438
1199.06	287.619	994.95	137.1	408.107	529.216	150.186	136.789	814.241	-1.28104	-9.03545
1199.26	287.419	825.078	137.223	589.156	430.521	142.879	136.141	891.356	0.51595	3.31391
1199.46	287.219	998.718	138.722	832.235	336.322	138.415	135.241	1039.97	0.291893	2.06267
1199.66	287.019	1327.18	144.385	1115.66	260.125	135.436	134.038	1253.49	-0.452288	-3.68438
1199.86	286.819	1468.35	161.03	1386.2	205.743	133.188	132.612	1488.32	0.116565	0.998775
1200.06	286.619	1567.34	203.094	1570.55	170.418	131.2	130.977	1682.33	0.649429	5.74909
1200.26	286.419	1479.83	298.41	1605.92	149.208	129.49	129.409	1794.8	1.83086	15.7488
1200.46	286.219	1956.19	492.731	1479.95	136.823	127.528	127.501	1854.53	-0.513966	-5.08306
1200.66	286.019	1940.46	851.613	1235.3	129.647	125.558	125.55	1965.47	0.126938	1.25034
1200.86	285.819	2485.82	1445.25	945.754	124.907	123.221	123.218	2269.47	-0.970291	-10.8174
1201.06	285.619	3276.98	2310.56	675.995	121.101	120.449	120.448	2866.76	-1.6024	-20.5112
1201.26	285.419	3538.9	3387.03	462.014	117.138	116.903	116.903	3732.38	0.727246	9.67388
1201.46	285.219	4482.68	4462.76	310.854	112.729	112.649	112.649	4661.04	0.595689	8.91812
1201.66	285.019	5910.8	5202.36	212.785	106.837	106.812	106.812	5308.36	-1.75217	-30.122
1201.86	284.819	5305.54	5313.66	153.943	101.1	101.092	101.092	5366.51	0.187179	3.04865
1202.06	284.619	4748.24	4745.85	120.779	96.1784	96.1763	96.1763	4770.45	0.0720802	1.11063
1202.26	284.419	3476.24	3732.26	102.839	92.084	92.0834	92.0834	3743.02	1.01176	13.3388
1202.46	284.219	3090.92	2617.67	93.1793	88.7915	88.7914	88.7914	2622.06	-1.88577	-23.4432
1202.66	284.019	1589.65	1664.69	88.6479	86.966	86.966	86.966	1666.37	0.430251	3.83582
1202.86	283.819	888.87	979.034	86.5687	85.9651	85.9651	85.9651	979.637	0.680762	4.53836
1203.06	283.619	681.582	547.423	85.4828	85.2806	85.2806	85.2806	547.625	-1.14734	-6.69785
1203.26	283.419	352.932	304.714	85.0508	84.9869	84.9869	84.9869	304.778	-0.573159	-2.40772
1203.46	283.219	359.706	180.997	84.7372	84.7184	84.7184	84.7184	181.016	-2.10674	-8.93449
1203.66	283.019	272.22	123.524	84.5844	84.5792	84.5792	84.5792	123.529	-2.01516	-7.43454
1203.86	282.819	106.115	99.0017	84.4492	84.4479	84.4479	84.4479	99.0031	-0.154386	-0.355617
1204.06	282.619	102.798	89.3931	84.3675	84.3672	84.3672	84.3672	89.3934	-0.295628	-0.670229
1204.26	282.419	137.734	85.8913	84.2877	84.2876	84.2876	84.2876	85.8914	-0.987766	-2.59215
1204.46	282.219	166.297	84.679	84.2063	84.2063	84.2063	84.2063	84.679	-1.41523	-4.08089
1204.66	282.019	142.643	84.2917	84.1629	84.1628	84.1628	84.1628	84.2917	-1.09247	-2.91756
1204.86	281.819	89.9006	84.1799	84.1474	84.1474	84.1474	84.1474	84.1799	-0.134913	-0.286036
1205.06	281.619	114.175	84.1167	84.1091	84.1091	84.1091	84.1091	84.1167	-0.629015	-1.5029
1205.26	281.419	164.918	84.0627	84.0611	84.0611	84.0611	84.0611	84.0627	-1.40786	-4.04276
1205.46	281.219	114.38	84.0173	84.017	84.017	84.017	84.017	84.0173	-0.634823	-1.51814
1205.66	281.019	68.4766	68.4767	68.4766	68.4766	68.4766	68.4766	68.4767	0	0
1205.86	280.819	137.647	137.647	137.647	137.647	137.647	137.647	137.647	0	0
1206.06	280.619	133.708	133.708	133.708	133.708	133.708	133.708	133.708	0	0
1206.26	280.419	73.8466	73.8466	73.8466	73.8466	73.8466	73.8466	73.8466	0	0
1206.46	280.219	105.26	105.26	105.26	105.26	105.26	105.26	105.26	0	0
1206.66	280.019	69.2586	69.2586	69.2586	69.2586	69.2586	69.2586	69.2586	0	0
1206.86	279.819	59.934	59.934	59.934	59.934	59.934	59.934	59.934	0	0
1207.06	279.619	128.497	128.497	128.497	128.497	128.497	128.497	128.497	0	0
1207.26	279.419	32.3418	32.3418	32.3418	32.3418	32.3418	32.3418	32.3418	0	0
1207.46	279.219	67.4606	67.4606	67.4606	67.4606	67.4606	67.4606	67.4606	0	0
1207.66	279.019	65.3924	65.3924	65.3924	65.3924	65.3924	65.3924	65.3924	0	0
1207.86	278.819	111.34	111.34	111.34	111.34	111.34	111.34	111.34	0	0
1208.06	278.619	137.646	137.646	137.646	137.646	137.646	137.646	137.646	0	0

File: 241019_195-2.3.csv
C1s Scan
	Characteristic Energy eV	1486.68	Acquisition Time s	0.05
KE_C1s Scan	BE_C1s Scan	CPS_C1s Scan	C-C/C-H_1_C1s Scan	C-O_2_C1s Scan	C=O_3_C1s Scan	O-C=O_4_C1s Scan	Background_C1s Scan	Envelope_C1s Scan	Normalised_Residual_C1s Scan	Residual_C1s Scan
1188.86	297.817	1244.48	1244.48	1244.48	1244.48	1244.48	1244.48	1244.48	0	0
1189.06	297.617	1280.43	1280.43	1280.43	1280.43	1280.43	1280.43	1280.43	0	0
1189.26	297.417	1384.01	1384.01	1384.01	1384.01	1384.01	1384.01	1384.01	0	0
1189.46	297.217	1053.32	1053.32	1053.32	1053.32	1053.32	1053.32	1053.32	0	0
1189.66	297.017	1301.06	1301.06	1301.06	1301.06	1301.06	1301.06	1301.06	0	0
1189.86	296.817	1152.63	1152.63	1152.63	1152.63	1152.63	1152.63	1152.63	0	0
1190.06	296.617	1242.71	1242.71	1242.71	1242.71	1242.71	1242.71	1242.71	0	0
1190.26	296.417	1082.84	1082.84	1082.84	1082.84	1082.84	1082.84	1082.84	0	0
1190.46	296.217	1215.86	1215.86	1215.86	1215.86	1215.86	1215.86	1215.86	0	0
1190.66	296.017	822.298	822.298	822.298	822.298	822.298	822.298	822.298	0	0
1190.86	295.817	1112.78	1112.78	1112.78	1112.78	1112.78	1112.78	1112.78	0	0
1191.06	295.617	1009.4	1009.4	1009.4	1009.4	1009.4	1009.4	1009.4	0	0
1191.26	295.417	944.586	944.586	944.586	944.586	944.586	944.586	944.586	0	0
1191.46	295.217	975.184	975.184	975.184	975.184	975.184	975.184	975.184	0	0
1191.66	295.017	947.018	947.018	947.018	947.018	947.018	947.018	947.018	0	0
1191.86	294.817	855.006	855.006	855.006	855.006	855.006	855.006	855.006	0	0
1192.06	294.617	760.334	760.334	760.334	760.334	760.334	760.334	760.334	0	0
1192.26	294.417	772.584	772.584	772.584	772.584	772.584	772.584	772.584	0	0
1192.46	294.217	615.736	615.736	615.736	615.736	615.736	615.736	615.736	0	0
1192.66	294.017	652.874	652.874	652.874	652.874	652.874	652.874	652.874	0	0
1192.86	293.817	682.426	682.426	682.426	682.426	682.426	682.426	682.426	0	0
1193.06	293.617	475.94	475.94	475.94	475.94	475.94	475.94	475.94	0	0
1193.26	293.417	444.324	444.324	444.324	444.324	444.324	444.324	444.324	0	0
1193.46	293.217	729.862	729.862	729.862	729.862	729.862	729.862	729.862	0	0
1193.66	293.017	498.25	498.25	498.25	498.25	498.251	498.25	498.251	0	0
1193.86	292.817	492.278	492.278	492.278	492.278	492.282	492.278	492.282	0	0
1194.06	292.617	480.966	480.966	480.966	480.966	480.981	480.966	480.981	0	0
1194.26	292.417	413.836	413.836	413.836	413.836	413.884	413.836	413.884	0	0
1194.46	292.217	324.016	324.016	324.016	324.017	324.158	324.016	324.159	0	0
1194.66	292.017	522.494	522.494	522.494	522.496	522.891	522.494	522.893	0	0
1194.86	291.817	406.94	406.94	406.94	406.948	407.982	406.94	407.99	0	0
1195.06	291.617	459.272	459.272	459.272	459.301	461.844	459.272	461.873	0	0
1195.26	291.417	356.086	356.086	356.086	356.182	362.037	356.086	362.133	0	0
1195.46	291.217	401.152	401.152	401.152	401.453	414.058	401.152	414.358	0	0
1195.66	291.017	454.99	439.712	439.712	440.601	466.054	439.712	466.943	0.125305	0.59766
1195.86	290.817	476.738	439.699	439.699	442.166	489.968	439.699	492.435	0.160759	0.784874
1196.06	290.617	366.406	439.681	439.681	446.092	529.218	439.681	535.63	1.97681	8.46119
1196.26	290.417	530.63	439.66	439.662	455.322	588.187	439.66	603.852	0.710769	3.66108
1196.46	290.217	717.154	439.555	439.565	475.56	667.548	439.555	703.562	-0.11349	-0.679595
1196.66	290.017	891.912	439.383	439.418	516.91	760.85	439.383	838.412	-0.400571	-2.67501
1196.86	289.817	849.046	439.197	439.319	595.576	852.208	439.197	1008.71	1.22525	7.98314
1197.06	289.617	1268.77	438.852	439.249	734.988	918.079	438.852	1214.61	-0.340004	-2.70808
1197.26	289.417	1766.84	438.395	439.61	961.324	937.816	438.395	1461.96	-1.62184	-15.2438
1197.46	289.217	1845.07	437.88	441.385	1296.16	904.498	437.88	1766.28	-0.410138	-3.93932
1197.66	289.017	1706.78	437.297	446.759	1740.52	829.034	437.297	2141.72	2.35411	21.7471
1197.86	288.817	2599.68	436.573	460.513	2252.47	734.336	436.573	2574.17	-0.111868	-1.27541
1198.06	288.617	2845.16	435.66	492.827	2738.09	642.278	435.66	3001.88	0.656969	7.8358
1198.26	288.417	3553.46	434.385	562.297	3069.68	566.359	434.385	3329.57	-0.839834	-11.1945
1198.46	288.217	3800.6	433.079	701.227	3138.72	511.252	433.078	3485.05	-1.14455	-15.7777
1198.66	288.017	3573.22	431.819	959.355	2922.67	474.921	431.812	3493.33	-0.298838	-3.99439
1198.86	287.817	3082.74	430.73	1401.74	2494.05	452.883	430.688	3487.33	1.62943	20.2297
1199.06	287.617	3397.76	429.619	2094.38	1977.9	440.137	429.401	3653.83	0.982315	12.8036
1199.26	287.417	4069.28	429.078	3077.25	1490.46	432.918	428.051	4145.55	0.267346	3.81344
1199.46	287.217	4996.48	430.618	4314.75	1097.7	428.343	426.277	4992.58	-0.0123497	-0.195197
1199.66	287.017	6041.4	440.603	5642.75	817.696	424.905	424.079	6053.72	0.035439	0.615936
1199.86	286.817	7256.72	478.008	6774	636.601	421.654	421.343	7046.23	-0.552516	-10.5245
1200.06	286.617	7172.48	594.357	7376.26	528.48	418.609	418.5	7662.21	1.29302	24.4864
1200.26	286.417	7719.62	907.521	7247.56	468.226	415.685	415.649	7792.04	0.18432	3.62123
1200.46	286.217	8140.82	1649.83	6433.3	436.26	412.604	412.593	7694.21	-1.10682	-22.3305
1200.66	286.017	8342.62	3201.25	5194.93	419.611	409.626	409.623	7996.54	-0.84724	-17.3039
1200.86	285.817	9713.5	6026.95	3864.89	410.134	406.187	406.187	9489.6	-0.507991	-11.1951
1201.06	285.617	13032.3	10413.5	2694.17	402.855	401.385	401.384	12707.8	-0.635625	-16.2254
1201.26	285.417	16734.5	15925.5	1798.61	395.541	395.026	395.026	17329.6	1.02853	29.7515
1201.46	285.217	21923.4	21008.1	1186.85	387.096	386.927	386.927	21808.2	-0.174031	-5.7619
1201.66	285.017	23301.4	23442.8	802.926	377.643	377.591	377.591	23868.2	0.830292	28.3405
1201.86	284.817	22892	21925.1	579.722	368.331	368.316	368.316	22136.5	-1.11654	-37.7746
1202.06	284.617	17358.1	17271.8	459.54	360.893	360.889	360.889	17370.4	0.0209257	0.616474
1202.26	284.417	12379.4	11665.8	398.908	355.663	355.662	355.662	11709	-1.34724	-33.5182
1202.46	284.217	6465.52	6915.9	370.527	352.762	352.761	352.761	6933.66	1.30186	23.4072
1202.66	284.017	3645.98	3704.96	358.009	351.162	351.162	351.162	3711.81	0.243778	3.29145
1202.86	283.817	2143.64	1877.02	352.898	350.409	350.409	350.409	1879.51	-1.27565	-13.2067
1203.06	283.617	1344.16	973.547	350.738	349.89	349.89	349.89	974.395	-2.2552	-18.4882
1203.26	283.417	1038.44	578.763	349.901	349.631	349.631	349.631	579.033	-3.18781	-22.9704
1203.46	283.217	891.44	425.228	349.511	349.43	349.43	349.43	425.31	-3.49097	-23.3065
1203.66	283.017	605.694	371.909	349.354	349.331	349.331	349.331	371.932	-2.12389	-11.6881
1203.86	282.817	434.816	355.338	349.26	349.254	349.254	349.254	355.344	-0.852206	-3.97358
1204.06	282.617	708.076	350.619	349.141	349.139	349.139	349.139	350.621	-3.00377	-17.8728
1204.26	282.417	334.11	349.454	349.13	349.13	349.13	349.13	349.454	0.187708	0.767205
1204.46	282.217	330.828	349.158	349.095	349.094	349.094	349.094	349.158	0.225347	0.91651
1204.66	282.017	365.048	349.101	349.09	349.09	349.09	349.09	349.101	-0.186631	-0.797339
1204.86	281.817	386.01	349.072	349.071	349.071	349.071	349.071	349.072	-0.420391	-1.84688
1205.06	281.617	260.414	260.414	260.414	260.414	260.414	260.414	260.414	0	0
1205.26	281.417	295.876	295.876	295.876	295.876	295.876	295.876	295.876	0	0
1205.46	281.217	295.328	295.328	295.328	295.328	295.328	295.328	295.328	0	0
1205.66	281.017	256.096	256.096	256.096	256.096	256.096	256.096	256.096	0	0
1205.86	280.817	306.91	306.91	306.91	306.91	306.91	306.91	306.91	0	0
1206.06	280.617	336.804	336.804	336.804	336.804	336.804	336.804	336.804	0	0
1206.26	280.417	249.308	249.308	249.308	249.308	249.308	249.308	249.308	0	0
1206.46	280.217	231.294	231.294	231.294	231.294	231.294	231.294	231.294	0	0
1206.66	280.017	118.121	118.121	118.121	118.121	118.121	118.121	118.121	0	0
1206.86	279.817	188.893	188.893	188.893	188.893	188.893	188.893	188.893	0	0
1207.06	279.617	181.247	181.247	181.247	181.247	181.247	181.247	181.247	0	0
1207.26	279.417	145.172	145.172	145.172	145.172	145.172	145.172	145.172	0	0
1207.46	279.217	75.3376	75.3376	75.3376	75.3376	75.3376	75.3376	75.3376	0	0
1207.66	279.017	122.214	122.214	122.214	122.214	122.214	122.214	122.214	0	0
1207.86	278.817	228.884	228.884	228.884	228.884	228.884	228.884	228.884	0	0